# ahrs_csv source=esp32-c3 algo=vqf-c accel_unit=g gyro_unit=rad/s frame=hand bias_subtracted=1 nominal_fs=100
t_us,gx,gy,gz,ax,ay,az,qw,qx,qy,qz
3500389,0.0003577396,0.0003391234,0.0005983226,0.03479,0.028381,1.0222,0.9997591,0.0138731,-0.01700563,3.044834e-06
3527916,0.001689315,0.001138072,6.568991e-05,0.035522,0.02832,1.0223,0.9997563,0.01386173,-0.0171808,6.443772e-06
3540680,0.0003577396,0.001004914,0.0001988485,0.035583,0.026672,1.0248,0.9997593,0.01357684,-0.01723384,1.326859e-05
3553700,0.001556158,-0.0004598247,-0.0002006255,0.037109,0.028748,1.025,0.999754,0.01369184,-0.01745024,1.343016e-05
3566720,0.001289845,-6.035063e-05,-6.746687e-05,0.03656,0.028687,1.0234,0.9997517,0.01375965,-0.01753107,1.323424e-05
3579831,0.0006240532,0.0006054398,0.0001988485,0.035645,0.029358,1.0245,0.9997508,0.01385557,-0.01750526,1.238369e-05
3592933,-0.002172265,0.0003391234,-6.746687e-05,0.034119,0.027527,1.0219,0.9997537,0.01379035,-0.01738786,1.12298e-05
3606040,-0.001107,-0.0003266665,0.000465164,0.035095,0.028564,1.0234,0.9997541,0.01380521,-0.0173586,1.265467e-05
3618817,-0.0003080517,7.280754e-05,-0.0004669409,0.034729,0.028198,1.0266,0.9997551,0.01379528,-0.01730848,9.75891e-06
3631995,0.0008903667,0.001138072,-0.0004669409,0.035217,0.028687,1.0214,0.9997549,0.01382339,-0.01729612,7.080154e-06
3645214,0.0004908964,0.0002059657,0.0001988485,0.035156,0.029602,1.024,0.9997543,0.01388248,-0.01728318,6.986064e-06
3658114,-0.00124016,0.0006054398,0.0009977967,0.035217,0.027893,1.0251,0.9997549,0.01385335,-0.01727148,1.218234e-05
3671138,-0.001107,-0.0009924565,-0.0003337841,0.036011,0.030273,1.0231,0.9997534,0.01392029,-0.01730102,9.438267e-06
3684156,0.00075721,0.0006054398,0.000864638,0.037415,0.029236,1.0255,0.999752,0.01394764,-0.01736559,1.439948e-05
3696916,0.00075721,-0.0004598247,0.001264114,0.036682,0.027222,1.0238,0.9997519,0.0139077,-0.01740463,2.202155e-05
3709968,-0.0008406863,-6.035063e-05,0.0005983226,0.035461,0.027588,1.0228,0.9997523,0.0138775,-0.01740103,2.533189e-05
3722958,0.0006240532,-6.035063e-05,0.0003320072,0.035583,0.031433,1.0201,0.999751,0.01397,-0.01740409,2.552355e-05
3735820,9.141862e-05,0.0003391234,-0.0004669409,0.035828,0.028381,1.0231,0.9997509,0.0139652,-0.01740875,2.340258e-05
3748908,-0.000973843,-6.035063e-05,6.568991e-05,0.03717,0.029175,1.025,0.9997501,0.01397486,-0.0174476,2.392687e-05
3761839,-4.173815e-05,-0.0004598247,0.0005983226,0.037842,0.028381,1.0249,0.9997492,0.0139685,-0.01750113,2.770398e-05
3775036,9.141862e-05,-6.035063e-05,6.568991e-05,0.036682,0.028015,1.0248,0.9997491,0.01395499,-0.01752103,2.855453e-05
3788224,0.0002245754,0.0008717561,-0.0006000996,0.034851,0.029419,1.0234,0.9997492,0.01397546,-0.01749532,2.499966e-05
3801422,0.001023531,0.0002059657,-0.0007332582,0.034302,0.029175,1.0236,0.9997497,0.0139928,-0.017463,2.078881e-05
3814261,-0.0003080517,-0.0003266665,0.0009977967,0.036255,0.029358,1.0256,0.9997492,0.014005,-0.01747424,2.561854e-05
3827374,-0.0003080517,-0.001791405,0.0007314812,0.034851,0.029053,1.0236,0.9997494,0.01401145,-0.01746577,2.873711e-05
3840575,0.0002245754,-0.0009924565,0.0001988485,0.033997,0.029297,1.0247,0.9997497,0.014024,-0.01743769,2.901772e-05
3853578,-0.0005743727,-0.0004598247,0.0007314812,0.036926,0.028748,1.0225,0.9997492,0.01402301,-0.0174636,3.288841e-05
3866821,-0.0003080517,-0.001391931,0.001130955,0.03717,0.029724,1.0252,0.9997484,0.01403893,-0.01749494,3.845107e-05
3879820,-0.0004412085,0.0003391234,0.001530429,0.036377,0.027466,1.0239,0.9997486,0.01401577,-0.0175036,4.659465e-05
3892822,0.0003577396,0.0006054398,0.000864638,0.035095,0.02948,1.025,0.9997486,0.01403022,-0.01748889,5.06028e-05
3905574,0.0003577396,0.0004722816,-6.746687e-05,0.037292,0.030334,1.0244,0.9997479,0.01405759,-0.01751047,5.021853e-05
3918811,-0.001772791,0.0008717561,0.000465164,0.035156,0.028748,1.0226,0.9997482,0.01404963,-0.01749724,5.230818e-05
3931819,-0.0007075295,-0.0005929829,-0.001132732,0.036133,0.02832,1.0211,0.9997482,0.01404152,-0.01750692,4.671948e-05
3944985,0.001689315,-0.000726141,0.0005983226,0.035034,0.029724,1.025,0.999748,0.01406385,-0.0174992,4.940289e-05
3957817,0.0004908964,7.280754e-05,-0.0007332582,0.034729,0.032288,1.0232,0.9997475,0.01411593,-0.01748469,4.471961e-05
3970939,0.001822479,-0.0003266665,0.001397271,0.035217,0.028381,1.0233,0.9997476,0.01411868,-0.01747968,5.185404e-05
3983942,-0.001373317,-6.035063e-05,-0.0003337841,0.034485,0.028381,1.0251,0.999748,0.01410545,-0.01746307,4.993448e-05
3997148,-0.00124016,-0.0004598247,0.0001988485,0.036011,0.026978,1.0231,0.9997483,0.01407608,-0.01746984,5.125478e-05
4010256,0.001023531,0.0004722816,0.0005983226,0.036255,0.030884,1.0219,0.9997478,0.01410829,-0.0174754,5.400473e-05
4023183,-0.000973843,-0.0005929829,-6.746687e-05,0.035217,0.030701,1.0254,0.9997476,0.01412598,-0.01747167,5.305165e-05
4036469,-0.0005743727,-0.000726141,-0.0004669409,0.036255,0.027832,1.0274,0.9997477,0.01410994,-0.01748035,5.091832e-05
4049818,-0.0004412085,-0.0001935083,0.001130955,0.037048,0.027161,1.0255,0.9997477,0.01408794,-0.01749623,5.707304e-05
4062942,-0.00124016,-6.035063e-05,-0.0009995736,0.0354,0.028381,1.0266,0.9997479,0.01407666,-0.01749153,5.198451e-05
4075959,0.0002245754,7.280754e-05,0.000465164,0.036255,0.028625,1.0242,0.9997478,0.01407625,-0.01749691,5.444093e-05
4088979,-0.000973843,-0.0001935083,0.000465164,0.034668,0.030518,1.0215,0.9997478,0.01409138,-0.01748722,5.616603e-05
4102088,0.001289845,-0.001791405,0.001264114,0.036133,0.029114,1.0271,0.9997475,0.01410026,-0.0174993,6.246969e-05
4114921,-0.0003080517,-0.001391931,-6.746687e-05,0.034424,0.026733,1.0266,0.999748,0.01407667,-0.01749151,6.218536e-05
4128124,-0.0008406863,-0.0005929829,-0.0003337841,0.035217,0.027039,1.0222,0.9997483,0.01405578,-0.01748986,6.062953e-05
4141497,-0.001107,-0.0001935083,-0.0007332582,0.034851,0.028687,1.024,0.9997485,0.01405026,-0.01748211,5.673267e-05
4154425,0.00075721,0.0003391234,0.001130955,0.035339,0.027588,1.0237,0.9997487,0.01404322,-0.01747708,6.261545e-05
4167266,-0.0004412085,-0.0005929829,0.000465164,0.034668,0.029785,1.0269,0.9997488,0.01405085,-0.01746924,6.45356e-05
4180373,-0.0008406863,-0.001391931,0.0005983226,0.035278,0.028687,1.027,0.9997488,0.01404587,-0.01747137,6.729941e-05
4193482,0.001822479,0.0003391234,-0.0002006255,0.0354,0.027954,1.0242,0.9997488,0.01404815,-0.01746706,6.656254e-05
4206412,0.0003577396,-0.001125615,-0.0003337841,0.034668,0.02887,1.0242,0.9997488,0.0140516,-0.01746345,6.468809e-05
4219432,-0.0005743727,-0.0009924565,-0.0006000996,0.036438,0.027405,1.0256,0.9997488,0.01403709,-0.01747466,6.186109e-05
4232825,9.141862e-05,-0.0003266665,-0.0002006255,0.035339,0.030701,1.0249,0.9997485,0.01405513,-0.01747299,6.048982e-05
4246077,-0.0001748949,-0.0005929829,0.0007314812,0.033447,0.029053,1.0223,0.9997488,0.01405776,-0.0174574,6.376532e-05
4259276,-0.0001748949,-0.0008592987,0.0007314812,0.035583,0.028259,1.0252,0.9997488,0.01405294,-0.01746078,6.740021e-05
4272561,0.0008903667,7.280754e-05,-0.001399048,0.034851,0.029602,1.0217,0.9997488,0.0140656,-0.01745435,6.026441e-05
4285570,-0.000973843,-0.0009924565,-0.0007332582,0.036865,0.030579,1.0232,0.9997483,0.01407631,-0.01746936,5.63152e-05
4298822,-0.000973843,-0.001391931,0.000465164,0.034546,0.031128,1.0215,0.9997481,0.0140913,-0.01746797,5.799136e-05
4311690,-0.0008406863,-0.0003266665,0.0001988485,0.03363,0.027649,1.0248,0.9997486,0.01407839,-0.01745339,5.881193e-05
4324893,-0.002172265,0.0007385979,-6.746687e-05,0.036438,0.028503,1.0234,0.9997486,0.01406619,-0.01745611,5.84507e-05
4338000,-0.00124016,7.280754e-05,-0.0007332582,0.036743,0.028992,1.0255,0.9997486,0.01406215,-0.01746375,5.475862e-05
4351105,-0.00124016,-0.000726141,-0.0003337841,0.035461,0.029114,1.0239,0.9997486,0.01405936,-0.01746591,5.285128e-05
4364215,-0.0004412085,0.0003391234,-0.0002006255,0.037903,0.028198,1.0271,0.9997485,0.01405308,-0.01748006,5.212812e-05
4377484,-0.001506474,0.0002059657,-0.0004669409,0.037903,0.027954,1.0257,0.9997484,0.01404025,-0.0174948,4.999218e-05
4390606,-0.000973843,0.0007385979,-0.0004669409,0.035645,0.02771,1.0265,0.9997486,0.0140284,-0.01749014,4.773426e-05
4403617,-4.173815e-05,0.0008717561,0.0003320072,0.036255,0.027588,1.0247,0.9997488,0.01402085,-0.01748973,4.963437e-05
4416821,0.001023531,-0.0001935083,0.000864638,0.035522,0.028809,1.0239,0.9997487,0.01402737,-0.01748967,5.399124e-05
4429831,-0.000973843,7.280754e-05,0.001796745,0.035583,0.028992,1.0245,0.9997487,0.014025,-0.01748864,6.283518e-05
4442670,-4.173815e-05,-0.0008592987,0.001530429,0.037231,0.029785,1.027,0.9997483,0.01403215,-0.01750279,7.042698e-05
4455814,9.141862e-05,-0.001525089,0.0009977967,0.037109,0.029053,1.0245,0.999748,0.01403542,-0.01751966,7.539379e-05
4468817,0.0004908964,-0.0008592987,0.0003320072,0.035095,0.030151,1.0262,0.9997479,0.01404758,-0.01751924,7.679887e-05
4481996,9.141862e-05,-0.000726141,6.568991e-05,0.037537,0.028015,1.0245,0.9997477,0.01404394,-0.01753445,7.731857e-05
4495104,0.001822479,-0.0004598247,-0.0002006255,0.036499,0.029358,1.0228,0.9997473,0.0140579,-0.01754174,7.64289e-05
4508121,-0.0001748949,0.0002059657,0.000465164,0.036133,0.028992,1.0248,0.9997473,0.01405905,-0.01754291,7.874744e-05
4521219,0.0008903667,0.0002059657,0.001530429,0.034302,0.027405,1.0223,0.9997475,0.01405587,-0.01753324,8.649876e-05
4534242,0.0003577396,0.0004722816,-0.0004669409,0.034485,0.029175,1.0222,0.9997476,0.01406131,-0.0175235,8.406257e-05
4547351,0.00075721,0.0006054398,0.0003320072,0.035828,0.027893,1.0206,0.9997476,0.01406101,-0.01752187,8.592162e-05
4560284,0.0006240532,7.280754e-05,6.568991e-05,0.035645,0.029175,1.0257,0.9997476,0.01406698,-0.0175207,8.624824e-05
4573303,-0.0004412085,-6.035063e-05,0.001130955,0.035889,0.028748,1.0209,0.9997475,0.01406576,-0.01752273,9.186282e-05
4586490,0.001556158,-0.0004598247,0.0003320072,0.037231,0.027161,1.0221,0.9997474,0.01406498,-0.01753431,9.390623e-05
4599605,-0.0003080517,0.0004722816,0.0007314812,0.0354,0.026611,1.0262,0.9997477,0.01405121,-0.01752964,9.774909e-05
4612622,0.0006240532,-0.0003266665,6.568991e-05,0.034973,0.027954,1.024,0.9997478,0.01405044,-0.01752694,9.811635e-05
4625734,-0.0004412085,0.0002059657,0.0007314812,0.037476,0.029114,1.0237,0.9997476,0.01405102,-0.01753597,0.0001018393
4638924,0.00075721,0.0004722816,0.0009977967,0.035645,0.027832,1.028,0.9997476,0.01404963,-0.01753243,0.0001069983
4651803,0.0006240532,7.280754e-05,0.0003320072,0.035767,0.027588,1.0248,0.9997477,0.01404686,-0.01753218,0.0001088218
4664872,-0.0005743727,0.0006054398,-0.0004669409,0.035156,0.028198,1.0269,0.9997479,0.01404135,-0.01752551,0.0001064761
4678159,-0.001373317,-0.0005929829,0.0001988485,0.03595,0.029968,1.0244,0.9997478,0.0140419,-0.0175297,0.0001071949
4691089,0.00075721,-0.001258773,0.001130955,0.036499,0.027405,1.026,0.9997476,0.01403885,-0.01753983,0.0001129972
4703844,9.141862e-05,-0.000726141,-0.0004669409,0.036133,0.029724,1.0243,0.9997475,0.0140453,-0.01754546,0.0001105444
4716954,0.0003577396,-0.0009924565,-0.0007332582,0.033997,0.028564,1.0245,0.9997475,0.01404687,-0.0175411,0.0001067155
4730145,-4.173815e-05,-0.0008592987,-0.0002006255,0.035889,0.026733,1.0242,0.9997476,0.01403696,-0.01754612,0.0001058296
4743517,-0.000973843,-0.0005929829,0.0007314812,0.036682,0.028442,1.0232,0.9997475,0.01403146,-0.01755408,0.0001094385
4756707,0.0008903667,-0.001125615,-0.0007332582,0.036255,0.028809,1.0243,0.9997472,0.01403708,-0.0175621,0.0001057871
4769818,0.001822479,0.001670704,-0.00126589,0.036072,0.029663,1.0256,0.9997472,0.01405141,-0.017555,9.966586e-05
4782481,0.0008903667,0.0008717561,-0.0002006255,0.035522,0.025635,1.0259,0.9997475,0.01404077,-0.01754921,9.904773e-05
4795683,0.001156688,0.0004722816,-0.00126589,0.033936,0.027771,1.0239,0.9997476,0.01404258,-0.01753794,9.280242e-05
4808609,-0.0001748949,-0.001791405,-0.001399048,0.036987,0.028198,1.0262,0.9997474,0.01403959,-0.01755253,8.578772e-05
4821820,0.0002245754,-0.0004598247,0.0001988485,0.034912,0.029968,1.0276,0.9997473,0.01404686,-0.01755022,8.6596e-05
4834824,-0.0003080517,-0.0004598247,6.568991e-05,0.037048,0.030518,1.0217,0.9997471,0.0140548,-0.01755916,8.679175e-05
4848020,0.0006240532,-0.001391931,0.0005983226,0.035522,0.02887,1.0231,0.9997469,0.01405918,-0.01756517,8.970263e-05
4861028,9.141862e-05,0.0006054398,-6.746687e-05,0.037659,0.027161,1.0236,0.9997469,0.01405286,-0.01757113,8.966165e-05
4874232,0.001822479,-0.0001935083,0.0001988485,0.03595,0.029846,1.0251,0.9997466,0.01406747,-0.01757276,9.071434e-05
4887247,0.001423001,-0.0003266665,-0.0008664168,0.033936,0.030579,1.0258,0.9997465,0.01408332,-0.01756562,8.621049e-05
4900450,-0.0003080517,-0.0003266665,-0.0002006255,0.035889,0.027771,1.0266,0.9997466,0.01407744,-0.01756743,8.523688e-05
4913821,-0.0004412085,0.0003391234,-6.746687e-05,0.037415,0.027954,1.0258,0.9997466,0.0140719,-0.01757295,8.504504e-05
4926995,-0.00124016,0.0004722816,0.0007314812,0.036377,0.028198,1.0262,0.9997467,0.01406345,-0.01757306,8.869819e-05
4940021,-0.001373317,0.0004722816,0.0001988485,0.036987,0.030029,1.0254,0.9997466,0.01406271,-0.01757595,8.957058e-05
4953131,-0.001373317,-0.001125615,0.0001988485,0.035522,0.028442,1.0249,0.9997467,0.01405503,-0.01758035,9.036137e-05
4966236,-0.001107,-0.0003266665,0.0003320072,0.03595,0.028748,1.0233,0.9997467,0.01405027,-0.0175829,9.189916e-05
4978989,0.0003577396,7.280754e-05,0.0005983226,0.036621,0.027954,1.0256,0.9997467,0.01404907,-0.01758599,9.502631e-05
4992089,0.0008903667,0.0003391234,-0.0007332582,0.03363,0.029236,1.0276,0.9997467,0.01405591,-0.01757455,9.128593e-05
5005205,0.0003577396,-0.001258773,0.0003320072,0.036011,0.026794,1.0262,0.9997467,0.01404977,-0.01758158,9.303752e-05
5018314,9.141862e-05,-0.0003266665,0.000864638,0.034912,0.028748,1.0243,0.9997468,0.01405081,-0.01757962,9.728197e-05
5031419,-0.001107,0.0004722816,0.0007314812,0.036804,0.028625,1.024,0.9997468,0.01404544,-0.01758168,0.0001009317
5044176,9.141862e-05,-0.0003266665,-0.0008664168,0.036011,0.02948,1.0279,0.9997467,0.01404928,-0.01758369,9.653407e-05
5057370,0.001023531,-0.000726141,-6.746687e-05,0.037354,0.028015,1.0256,0.9997464,0.01405187,-0.01759357,9.636822e-05
5070485,-0.0007075295,-0.0003266665,-0.0007332582,0.036987,0.026062,1.0223,0.9997466,0.0140384,-0.01760029,9.286607e-05
5083819,0.0008903667,-0.000726141,-0.0007332582,0.036255,0.027832,1.0265,0.9997465,0.01403968,-0.01760537,8.930619e-05
5096952,0.001156688,-0.001258773,0.0001988485,0.037048,0.026428,1.0262,0.9997463,0.01403663,-0.0176163,9.053411e-05
5109882,0.001156688,-6.035063e-05,0.000465164,0.036072,0.028198,1.024,0.9997462,0.01404091,-0.01761765,9.299716e-05
5122815,0.0002245754,0.0002059657,-0.0002006255,0.036316,0.029236,1.0249,0.9997461,0.01404459,-0.01761845,9.201002e-05
5136011,0.0004908964,-0.0003266665,0.0005983226,0.035461,0.028137,1.0273,0.9997462,0.01404493,-0.01761829,9.503176e-05
5149204,0.00075721,7.280754e-05,-0.0004669409,0.035828,0.025513,1.0222,0.9997463,0.01403711,-0.01761821,9.297943e-05
5162222,0.0002245754,-0.0004598247,0.000864638,0.034546,0.02948,1.0189,0.9997463,0.01404224,-0.01761639,9.715841e-05
5175242,-0.001772791,0.0003391234,-0.0002006255,0.033997,0.027771,1.0258,0.9997466,0.01403026,-0.01760757,9.597876e-05
5188444,-0.001506474,0.0007385979,6.568991e-05,0.035706,0.029358,1.0236,0.9997467,0.01402591,-0.01760364,9.616688e-05
5201541,0.0006240532,0.0006054398,6.568991e-05,0.035034,0.029114,1.0229,0.9997467,0.01403131,-0.01759798,9.651557e-05
5214644,0.0003577396,-0.0001935083,-0.0007332582,0.035583,0.02832,1.0278,0.9997467,0.01403195,-0.0175977,9.287286e-05
5227814,-0.0007075295,0.0003391234,0.000465164,0.033447,0.02832,1.0279,0.999747,0.0140272,-0.01758698,9.505342e-05
5240602,0.0003577396,-0.001525089,0.0003320072,0.036804,0.028564,1.0228,0.9997467,0.0140292,-0.01759859,9.668893e-05
5253608,-0.0004412085,0.00127123,0.0001988485,0.036255,0.027954,1.0237,0.9997469,0.01402493,-0.0175941,9.779546e-05
5266550,9.141862e-05,-0.001125615,-0.0003337841,0.034668,0.029724,1.0253,0.9997467,0.01402962,-0.01759556,9.592407e-05
5279813,9.141862e-05,-6.035063e-05,0.0005983226,0.035583,0.027771,1.0247,0.9997469,0.01402725,-0.01759519,9.895772e-05
5292937,0.0003577396,0.0006054398,-0.0009995736,0.033447,0.028992,1.0244,0.9997469,0.01403075,-0.01758385,9.389094e-05
5306131,-0.001373317,-6.035063e-05,0.0005983226,0.034302,0.029541,1.0239,0.9997471,0.01402747,-0.01757913,9.662195e-05
5319324,0.0002245754,0.0002059657,0.000864638,0.036438,0.029419,1.0242,0.999747,0.01403166,-0.01758063,0.0001009578
5332254,9.141862e-05,0.0007385979,0.000864638,0.035828,0.026245,1.0253,0.9997472,0.01402399,-0.01757722,0.0001054845
5345274,0.0008903667,0.0003391234,-0.0007332582,0.036255,0.028442,1.027,0.9997472,0.01402795,-0.01757697,0.0001019521
5358384,-0.0004412085,-0.000726141,0.000465164,0.037231,0.028137,1.0256,0.999747,0.01402425,-0.0175856,0.000104283
5371218,-0.0004412085,7.280754e-05,0.0009977967,0.036255,0.026855,1.0229,0.9997471,0.01401645,-0.01758724,0.000109361
5384333,-0.0004412085,0.0008717561,0.0001988485,0.03595,0.027954,1.0238,0.9997472,0.01401243,-0.01758369,0.0001104202
5397443,0.0006240532,0.0004722816,0.001530429,0.034973,0.028442,1.0277,0.9997473,0.01401491,-0.0175785,0.0001181264
5410369,9.141862e-05,-0.0004598247,-0.0007332582,0.036377,0.029602,1.0247,0.9997472,0.01401907,-0.01758287,0.0001144026
5423658,-0.0003080517,-0.0004598247,-6.746687e-05,0.0354,0.02948,1.0229,0.9997472,0.01402091,-0.01758422,0.0001139337
5436803,-4.173815e-05,-0.0004598247,6.568991e-05,0.0354,0.029541,1.0284,0.9997471,0.01402374,-0.01758495,0.0001141507
5449866,0.0003577396,0.00127123,0.000864638,0.03595,0.026917,1.0206,0.9997472,0.01402057,-0.01757984,0.0001186959
5462619,-0.00124016,0.001138072,-0.0006000996,0.034363,0.029724,1.0231,0.9997473,0.01401855,-0.01756988,0.0001155353
5475642,0.0004908964,0.0004722816,-0.001399048,0.034973,0.027588,1.0269,0.9997475,0.01401795,-0.01756481,0.0001086374
5488808,0.0002245754,0.0002059657,0.0005983226,0.034851,0.026672,1.025,0.9997477,0.01401293,-0.01756073,0.0001116154
5501804,9.141862e-05,-0.0001935083,0.001264114,0.035889,0.027405,1.0238,0.9997476,0.01400959,-0.01756192,0.0001178171
5514875,-0.000973843,0.0006054398,-0.0007332582,0.034363,0.030334,1.0225,0.9997478,0.01401048,-0.01755414,0.0001137188
5528069,0.001156688,0.0006054398,0.0005983226,0.033447,0.029297,1.0226,0.9997478,0.01401845,-0.01754351,0.00011645
5540913,0.0008903667,-0.0003266665,0.001130955,0.035828,0.032776,1.0256,0.9997476,0.01403554,-0.01754467,0.0001216453
5554019,0.0006240532,0.0007385979,0.0003320072,0.035828,0.028259,1.0264,0.9997476,0.01403705,-0.01754032,0.0001231279
5567118,0.0003577396,-6.035063e-05,0.0001988485,0.035461,0.02771,1.0267,0.9997478,0.0140355,-0.01753874,0.0001238627
5580146,-0.0004412085,0.002735969,0.000465164,0.037537,0.029297,1.0251,0.9997478,0.01403495,-0.01752977,0.0001260454
5593163,0.0006240532,0.003801233,6.568991e-05,0.036133,0.028076,1.0264,0.9997482,0.01403586,-0.01751107,0.000126394
5606096,0.0004908964,0.004067549,-0.0007332582,0.036926,0.028381,1.0211,0.9997485,0.01403755,-0.01749403,0.000122764
5619122,0.001156688,0.006597552,-0.001399048,0.033875,0.028931,1.0308,0.999749,0.01404341,-0.01745423,0.0001158769
5631956,0.003553532,0.01898125,0.0009977967,0.037537,0.028442,1.0211,0.9997504,0.01406026,-0.01736531,0.0001222315
5644807,0.004485637,0.04428128,-0.0004669409,0.044128,0.029053,1.0167,0.9997534,0.01408392,-0.01717111,0.0001233812
5657808,0.008480377,0.07157868,-0.0004669409,0.026123,0.032166,1.0303,0.9997592,0.01413533,-0.01678776,0.0001259228
5670677,0.006083533,0.05040655,0.0001988485,0.036621,0.03009,1.0184,0.9997628,0.01416932,-0.01654408,0.0001306667
5683432,0.01327407,0.08156554,6.568991e-05,0.018311,0.030945,1.0322,0.9997692,0.01424017,-0.01609224,0.0001367896
5696185,0.005684063,0.03695759,-0.0007332582,0.042175,0.027222,1.0173,0.9997713,0.01426337,-0.01593554,0.0001363167
5709123,0.01234196,0.07836974,0.008055175,0.012146,0.041504,1.0398,0.999777,0.01435817,-0.0154858,0.0001814111
5721620,9.141862e-05,0.006198078,0.07077262,0.028687,0.040771,1.0298,0.999777,0.01438532,-0.01545044,0.0005346328
5734383,-0.003503848,-0.04253777,0.1073911,0.031433,0.035706,1.0281,0.9997733,0.01437734,-0.01566808,0.00106744
5746963,-0.007764906,-0.06011464,0.06065261,0.034302,0.016663,1.0146,0.9997692,0.01429905,-0.01597793,0.001365955
5759797,-0.001905948,-0.02109932,0.03135783,0.039062,0.034363,1.0284,0.9997669,0.01430135,-0.01610198,0.001520671
5772484,-0.001639634,-0.02083301,0.02083835,0.042908,0.047302,1.0278,0.9997641,0.01434203,-0.01623389,0.001622393
5785243,-0.006167009,-0.04320356,0.04627153,0.056091,0.039185,1.0193,0.9997591,0.01433599,-0.01651544,0.00185014
5797915,-0.006566484,-0.04400251,0.06185103,0.024536,0.0094604,1.0194,0.9997566,0.01424416,-0.016713,0.002155771
5810593,-0.0008406863,-0.02163196,0.06198419,0.019592,0.02063,1.0345,0.9997552,0.01421091,-0.01678322,0.00246343
5823252,-0.0004412085,-0.03148565,0.1562601,0.030701,0.036133,1.0187,0.9997501,0.014216,-0.01694053,0.003241384
5835839,-0.003237531,-0.03827671,0.1942101,0.033264,0.02179,1.0162,0.9997439,0.01416524,-0.01714082,0.004209069
5848427,-0.00456911,-0.04133935,0.178897,0.011536,0.0061646,1.0266,0.9997385,0.01406631,-0.01729457,0.005099776
5861018,-0.02068124,-0.05066041,0.06291629,0.022644,0.0053101,1.0366,0.9997354,0.01389551,-0.01751534,0.005409139
5873807,-0.09391817,-0.1045894,-0.125236,0.049194,0.038452,1.0199,0.9997347,0.01346996,-0.01806429,0.004767134
5886270,-0.1007092,-0.1093831,-0.1173797,0.075684,0.062561,0.99738,0.9997309,0.01307818,-0.0187071,0.00416302
5898681,-0.09831238,-0.1028584,-0.05546122,0.050781,0.026306,1.0225,0.9997278,0.01259606,-0.01924943,0.003869818
5911355,-0.119884,-0.1088505,0.006457277,0.074768,0.012695,1.0168,0.9997231,0.0119682,-0.01988667,0.003884995
5923800,-0.1624946,-0.1333516,0.0746342,0.086975,-0.022766,1.0336,0.9997164,0.011032,-0.02067732,0.004237285
5936092,-0.1691525,-0.1242968,-0.0212396,0.10266,-0.014465,1.0242,0.9997103,0.01010021,-0.02145471,0.004109887
5948591,-0.1622283,-0.1028584,-0.1659824,0.06427,0.022522,1.0164,0.9997089,0.009318994,-0.02201425,0.003257485
5961083,-0.1003098,-0.059582,-0.3224431,0.078491,0.048218,1.0171,0.9997082,0.00893218,-0.02238364,0.001630541
5973504,-0.05450338,-0.02349617,-0.4573322,0.018372,0.053894,1.0301,0.9997099,0.008803283,-0.02240936,-0.0006656831
5986530,-0.04012231,-0.0322846,-0.4176511,0.0098877,0.023438,1.0381,0.9997064,0.008663367,-0.022458,-0.002760762
5999285,-0.02560809,-0.04240461,-0.3912858,0.020935,0.00061035,1.0211,0.9996973,0.00853558,-0.02258822,-0.004721288
6012306,-0.01482228,-0.04493462,-0.3397537,-0.01825,-0.015015,1.067,0.9996879,0.008415458,-0.02262874,-0.006423073
6025234,-0.03066809,-0.1414742,-0.2092588,-0.032227,0.034607,1.0978,0.9996701,0.008323182,-0.02311709,-0.007481584
6038169,-0.05530233,-0.3132481,-0.07783177,0.003418,0.047546,1.1084,0.9996345,0.008118193,-0.02455005,-0.007893291
6051104,-0.0747434,-0.4811604,0.03521942,0.02417,0.060059,1.0912,0.9995783,0.007828159,-0.02686803,-0.007749876
6063803,-0.09711396,-0.7695807,0.2482723,0.1698,0.098389,1.1733,0.9994711,0.007477459,-0.03096166,-0.006556793
6076360,-0.06382445,-0.9960826,0.2434786,0.16846,0.053284,1.2028,0.9993063,0.007174734,-0.0361466,-0.005389114
6088938,0.04070463,-1.187963,0.2072596,0.15643,0.01947,1.2044,0.9990719,0.007311429,-0.04222322,-0.004388202
6101349,0.2074185,-1.259469,0.144409,0.11023,0.0014038,1.1801,0.9987819,0.008244365,-0.04851217,-0.00366728
6113676,0.4910452,-1.071184,0.0432089,0.10107,-0.0096436,1.0903,0.9984883,0.01058623,-0.05383075,-0.003372975
6126177,0.5226036,-1.034166,0.04360837,0.13025,0.018433,1.0394,0.9981656,0.01314335,-0.05902043,-0.0030681
6138409,0.4717372,-1.0592,0.06438103,0.20441,0.058838,1.0087,0.9977939,0.01552615,-0.06449173,-0.002678879
6150644,0.356955,-1.104607,0.05585892,0.23035,0.065735,1.0266,0.9973786,0.01734342,-0.07021145,-0.002372528
6162972,0.1512258,-1.296221,0.05612523,0.22351,0.078186,1.048,0.9968771,0.01815504,-0.07682363,-0.002156788
6175299,0.09489995,-1.41087,0.06504682,0.22272,0.07196,1.0654,0.9962927,0.01866115,-0.0839582,-0.001928856
6187547,0.05961307,-1.541898,0.06344893,0.25311,0.044312,1.0475,0.9955982,0.01892455,-0.09177748,-0.001730117
6200045,0.04722937,-1.600887,0.02949362,0.28552,0.053833,1.0549,0.9948105,0.01915995,-0.09991014,-0.001713048
6212541,0.01154301,-1.64616,-0.005793264,0.29803,0.054016,0.98285,0.9939327,0.01923961,-0.1082783,-0.001894176
6225127,-0.06582182,-1.568263,0.001663588,0.3158,0.043091,0.94116,0.9930349,0.01890958,-0.1162754,-0.00207024
6237625,-0.1863299,-1.501551,0.004593065,0.33459,0.022095,0.90375,0.9921225,0.01793777,-0.1239599,-0.002290196
6250211,-0.3264121,-1.461603,-0.0003337841,0.35956,0.035767,0.92157,0.9911856,0.0163098,-0.1314471,-0.002622481
6262884,-0.4957892,-1.492629,0.03015941,0.31775,0.0065308,0.94989,0.9902014,0.01376446,-0.1389367,-0.002912575
6275473,-0.4736849,-1.474653,0.04746996,0.27417,-0.021545,1.0014,0.9891906,0.01126199,-0.1461693,-0.003093893
6287965,-0.398717,-1.558809,0.05639155,0.30194,-0.013184,1.0168,0.9880508,0.009149816,-0.1538239,-0.003183227
6300476,-0.2736816,-1.727254,0.07410157,0.36816,-0.0053101,0.9942,0.9866875,0.007663324,-0.1624175,-0.003098113
6313144,0.05841465,-2.134983,0.09620581,0.42456,-0.017456,0.98639,0.9848728,0.007763135,-0.173085,-0.002643336
6325803,0.1676043,-2.154824,0.04427417,0.46838,0.0224,0.96899,0.9829088,0.008529244,-0.1838801,-0.002363823
6338049,0.2132775,-2.03152,-0.03894962,0.48114,0.049011,0.99353,0.9809507,0.00964828,-0.1940015,-0.002456226
6350468,0.2427054,-1.986113,-0.1139176,0.46857,0.046082,1.0078,0.9789488,0.01096994,-0.2037907,-0.002884291
6362800,0.4865178,-2.304893,-0.02696539,0.44867,-0.00354,0.95831,0.9765039,0.01327587,-0.2150745,-0.002631723
6375287,0.6710749,-2.411952,0.05412786,0.50391,-0.016174,0.90869,0.9737664,0.01635537,-0.2269547,-0.001779423
6387802,0.7965097,-2.416746,0.04560575,0.57336,-0.027283,0.8858,0.9708326,0.02001567,-0.2389203,-0.0008118151
6400287,0.8501724,-2.483325,-0.006991686,0.57031,0.021606,0.84515,0.9676508,0.02408711,-0.2511411,-6.088676e-05
6412947,0.7159492,-2.532061,0.01577834,0.59485,0.059326,0.81488,0.9642453,0.02754445,-0.2635753,0.0006105231
6425281,0.5352536,-2.574938,-0.002597471,0.57672,0.057007,0.77368,0.9606485,0.03014036,-0.2761255,0.0009515038
6437803,0.3782603,-2.531528,-0.04454226,0.62402,0.030884,0.74097,0.956951,0.03197617,-0.2884814,0.0009011126
6450104,0.2722665,-2.397704,-0.1002023,0.63385,0.020935,0.73529,0.953319,0.03335413,-0.3001169,0.0004621304
6462339,0.2083506,-2.024862,-0.1352229,0.66327,0.022034,0.72211,0.9501265,0.03447314,-0.3099535,-0.0001736477
6474831,0.2512275,-1.98345,-0.1103223,0.68024,0.019958,0.7439,0.9469034,0.03574111,-0.3195249,-0.0006123246
6487164,0.2947702,-2.083984,-0.0964739,0.76544,0.043884,0.69171,0.9433534,0.03723395,-0.3296925,-0.0009406774
6499668,0.3051565,-2.133652,-0.1167139,0.82965,0.099121,0.73236,0.9396022,0.0388971,-0.3400484,-0.001387654
6511987,0.2544233,-2.419009,-0.2622557,0.76746,0.05896,0.66174,0.935265,0.04048856,-0.3516151,-0.002634367
6524228,0.2710681,-2.407691,-0.2603915,0.70844,0.035645,0.65149,0.9308466,0.04210149,-0.3629566,-0.003825479
6536635,0.2958355,-2.402631,-0.2279009,0.67047,0.03833,0.6145,0.9263107,0.04377161,-0.3741783,-0.004821147
6548875,0.295436,-2.358955,-0.1618545,0.70172,0.085693,0.59015,0.9217045,0.04539638,-0.3851874,-0.005533034
6561203,0.2344496,-2.295306,-0.0774323,0.71112,0.12061,0.64075,0.9171471,0.04662427,-0.3957669,-0.005985408
6573526,0.04123726,-2.361352,0.06930788,0.82819,0.093018,0.52856,0.9122691,0.04662224,-0.4068834,-0.006129304
6586032,-0.005501218,-2.282656,0.07956105,0.88599,0.070557,0.45197,0.9073719,0.04634712,-0.4177185,-0.006279428
6598693,-0.01136017,-2.090375,0.0250994,0.95697,0.051636,0.39978,0.9027042,0.0461261,-0.4277311,-0.006620924
6611113,0.01447249,-1.903022,-0.05479543,0.95709,0.065369,0.45563,0.8983839,0.04620881,-0.4367137,-0.00723606
6623611,0.04456621,-2.201163,-0.1219071,0.91046,0.062744,0.4444,0.8933384,0.04655543,-0.4468922,-0.008156874
6636024,0.03817462,-2.358289,-0.1239045,0.86072,0.083618,0.43298,0.887858,0.04690572,-0.457629,-0.009159979
6648346,-0.0005743727,-2.463085,-0.08235915,0.8103,0.090515,0.41907,0.8820508,0.04699351,-0.468696,-0.01010307
6660935,-0.05743286,-2.474004,-0.01178538,0.83801,0.069092,0.39142,0.876083,0.04661993,-0.4797785,-0.01084739
6673424,-0.1023071,-2.305026,0.06025314,0.94421,0.060913,0.36029,0.8703474,0.04585962,-0.4901675,-0.01132491
6685843,-0.03040177,-2.210218,0.06398156,0.99994,0.068787,0.32849,0.8646774,0.04541491,-0.5001361,-0.01158962
6698346,0.06227623,-2.075728,0.01910729,1.0099,0.079102,0.3349,0.8592361,0.04549984,-0.5094153,-0.01179471
6710587,0.1135421,-2.030587,-0.05226542,1.0096,0.095947,0.30615,0.8537929,0.04601347,-0.5184324,-0.01218074
6722907,0.1400405,-2.09983,-0.1593245,0.96234,0.073669,0.29901,0.8480992,0.04687265,-0.5276012,-0.01295088
6735145,0.1737295,-2.176662,-0.1508024,1.0038,0.1087,0.21161,0.8420128,0.04790132,-0.5371535,-0.01364088
6747203,0.1854474,-2.094237,-0.1514682,1.0451,0.12787,0.21014,0.8360439,0.04900192,-0.546283,-0.01429469
6759271,0.1388421,-2.05136,-0.218713,1.0417,0.087219,0.18622,0.8301051,0.05002119,-0.5551481,-0.01529974
6771334,0.1198005,-1.978523,-0.2786341,1.0433,0.094788,0.14746,0.8242592,0.051139,-0.5636544,-0.01659019
6783400,0.1392416,-2.220338,-0.2562636,0.93317,0.10687,0.13776,0.8176847,0.05227617,-0.573011,-0.01781788
6795552,0.1676043,-2.402897,-0.1617213,1.0222,0.12769,0.036377,0.8103576,0.05326365,-0.5832124,-0.01863045
6807790,0.1596148,-2.437652,-0.1232387,1.0654,0.12891,0.0067139,0.8027877,0.05408975,-0.5934924,-0.01931096
6820119,0.06720307,-2.408623,-0.190084,1.0864,0.12915,-0.063965,0.7951393,0.05473837,-0.6036028,-0.0205172
6832354,-0.1080329,-1.793833,-0.3464116,1.0117,0.12952,0.014099,0.7894077,0.05521277,-0.6109591,-0.02271304
6844682,-0.1246777,-1.621659,-0.3695811,0.97192,0.13641,-0.013611,0.7841366,0.05572071,-0.6175755,-0.02501118
6857183,-0.06475655,-1.409938,-0.3119236,0.974,0.16113,-0.00024414,0.779487,0.05633689,-0.6233014,-0.02686358
6869672,-0.03213283,-1.327913,-0.2682478,0.95459,0.14276,0.00085449,0.7750706,0.05692346,-0.6286643,-0.02839913
6882351,0.0360441,-1.230308,-0.163985,1.013,0.16089,-0.03302,0.7708822,0.05747494,-0.6337026,-0.02929643
6894410,0.01553775,-1.476117,-0.1473403,1.0058,0.13129,-0.046692,0.7658896,0.05781281,-0.6396539,-0.03022869
6906829,0.01713565,-1.742167,-0.1458755,1.0284,0.11261,-0.15009,0.7598881,0.05808735,-0.6467015,-0.03119341
6919156,0.03324778,-1.734577,-0.1208418,1.0155,0.13141,-0.17358,0.7538412,0.05836649,-0.653675,-0.03202849
6931383,-0.01748544,-1.6917,-0.1225729,0.95526,0.16327,-0.20343,0.7478787,0.05851552,-0.6604241,-0.03306668
6943795,-0.07327867,-1.472256,-0.1316276,1.0001,0.16229,-0.19189,0.7426291,0.05850386,-0.6662632,-0.03424801
6956130,-0.1132261,-1.408606,-0.161455,1.001,0.18219,-0.22937,0.7375249,0.05847718,-0.671837,-0.03567325
6968187,-0.1425209,-1.177311,-0.1891519,0.96307,0.18695,-0.19238,0.7332286,0.05847808,-0.6764386,-0.03724274
6980613,-0.1856641,-0.9614615,-0.1960761,0.91235,0.17566,-0.18201,0.7296779,0.05837132,-0.6801829,-0.0389132
6993010,-0.1911235,-0.4709072,-0.1153823,0.94379,0.16571,-0.09552,0.7279103,0.05803452,-0.6820312,-0.04015112
7005518,-0.173014,-0.5745042,-0.1224397,0.93158,0.14191,-0.084106,0.7258,0.05773441,-0.68423,-0.0413556
7017487,-0.0754092,-0.6486732,-0.1140508,0.92023,0.14294,-0.12189,0.7233638,0.05774932,-0.6867515,-0.04221638
7029993,-0.000973843,-0.6012689,-0.0815602,0.91858,0.18048,-0.17871,0.7210024,0.05798365,-0.6891789,-0.04273107
7042671,-0.0027049,-0.3501329,-0.03562067,1.0009,0.17493,-0.15076,0.7195482,0.05808062,-0.6906726,-0.04299334
7055165,0.01846723,-0.3840882,-0.06717913,0.99274,0.17139,-0.13165,0.7179905,0.05834851,-0.69225,-0.0433036
7067485,0.08264941,-0.4474714,-0.08675336,0.95068,0.16589,-0.14716,0.7161759,0.05890096,-0.6940695,-0.0434791
7079992,0.1456332,-0.4027303,-0.09048179,0.90955,0.18091,-0.2077,0.7144244,0.05973194,-0.6958027,-0.04345606
7092403,0.1646748,0.09488134,0.007522542,0.92371,0.17438,-0.29431,0.7143129,0.06039638,-0.6958973,-0.042851
7104797,0.1364453,0.2506763,0.06757683,1.0605,0.15466,-0.25165,0.7148146,0.06073154,-0.6954026,-0.04203807
7116966,0.07479309,-0.0834173,0.03189047,1.0787,0.11975,-0.21222,0.7142186,0.06084963,-0.6960291,-0.04162683
7129367,0.07692362,-0.589551,-0.02643276,1.0267,0.11462,-0.27002,0.7117847,0.06108087,-0.6985011,-0.04156948
7141796,0.1090147,-0.8067318,-0.07570124,0.91022,0.14032,-0.32465,0.7085051,0.06160836,-0.7017742,-0.04168816
7154287,-0.01721913,-0.3831561,0.09061317,0.69794,0.18616,-0.35486,0.7067405,0.06128814,-0.7035832,-0.04162092
7166872,-0.04584811,0.06252393,0.3119219,0.84583,0.2005,-0.33319,0.7066233,0.06017138,-0.7038494,-0.04073218
7179283,-0.1094977,0.2589321,0.4006051,1.012,0.19226,-0.27216,0.7073063,0.05851612,-0.7033637,-0.03966621
7191436,-0.1470482,0.1992773,0.3157834,1.0573,0.17578,-0.23572,0.7078153,0.05698619,-0.7030128,-0.03902948
7203670,-0.05450338,0.03602548,0.1044616,1.0277,0.16534,-0.29211,0.7076163,0.05649291,-0.7032627,-0.03885229
7216088,-0.04318495,0.08116607,0.04680417,1.0288,0.16522,-0.30127,0.7075518,0.05625177,-0.7033482,-0.03882634
7228586,-0.08845869,0.08449502,0.006723594,1.0081,0.16919,-0.27661,0.7075343,0.05599734,-0.7033705,-0.03910999
7241170,-0.114824,0.07797027,-0.01751117,0.97266,0.16534,-0.23676,0.7075446,0.05573041,-0.7033551,-0.03957716
7253670,-0.04851127,0.05679814,0.03868153,0.96875,0.18787,-0.22076,0.7074915,0.05552198,-0.7034212,-0.03964652
7266247,-0.01575439,0.1683846,0.04533943,0.95178,0.17419,-0.22754,0.7078156,0.05541562,-0.7031098,-0.03953263
7278796,0.006882481,0.3492132,0.0498668,0.94196,0.18225,-0.24127,0.7087505,0.05542181,-0.7021809,-0.03928312
7291165,0.01607039,0.5165929,0.07889526,0.97949,0.16968,-0.22351,0.7102914,0.05537017,-0.7006513,-0.03883297
7303575,0.002754584,0.6064746,0.01537887,1.0378,0.15082,-0.22278,0.7121305,0.05548024,-0.6987864,-0.03859884
7315991,0.009412482,0.613532,-0.03948225,1.0146,0.14948,-0.22424,0.7139702,0.05580882,-0.6968838,-0.03853553
7328390,0.004618794,0.6642652,-0.06611386,1.0113,0.16553,-0.25549,0.715935,0.05624434,-0.6948273,-0.03858482
7340813,-0.01548807,0.8646681,-0.06864387,1.0251,0.17444,-0.23187,0.7186108,0.05666073,-0.6920212,-0.03866355
7353311,-0.04065494,0.9478919,-0.0666465,0.97705,0.17053,-0.13867,0.721876,0.05692867,-0.6885861,-0.0387748
7365639,0.005284585,0.9071455,-0.0009995736,1.0073,0.16907,-0.16223,0.7249839,0.05712758,-0.6853119,-0.03850184
7378313,0.03351409,0.9738577,0.02110466,1.0389,0.15729,-0.19055,0.728299,0.05736502,-0.6817943,-0.03803224
7390551,0.01274144,1.160279,-0.001399048,1.0411,0.15625,-0.21667,0.7322285,0.05763764,-0.6775699,-0.03766086
7402953,-0.09551606,1.887988,-0.04574068,1.0266,0.17529,-0.17133,0.7385994,0.05779798,-0.6706089,-0.03760656
7415372,-0.1453172,2.184797,-0.089816,1.0179,0.16888,-0.12537,0.7458923,0.05797236,-0.6624618,-0.03779237
7427518,-0.168753,2.411299,-0.09421021,1.0182,0.1626,-0.090271,0.7538408,0.05810942,-0.6533783,-0.03800157
7439794,-0.1772751,2.657242,-0.08848441,1.0569,0.14435,-0.047791,0.7624731,0.05823329,-0.6432643,-0.0381394
7452084,-0.0531718,2.541794,-0.193413,0.94354,0.1507,0.15961,0.7705477,0.05913607,-0.6334761,-0.03830516
7464136,0.08624469,2.082665,-0.1506692,0.93744,0.1499,0.14539,0.7770304,0.06034479,-0.6254108,-0.03799515
7476298,0.1984969,1.748571,-0.09048179,0.9516,0.14258,0.087524,0.7823734,0.06173247,-0.6186255,-0.03719752
7488540,0.2510944,1.685987,-0.07037492,0.97937,0.16351,0.015015,0.787451,0.06324759,-0.6120557,-0.03617496
7500792,0.2187369,1.896643,-0.05705912,1.0403,0.17749,-0.011719,0.7931205,0.06462777,-0.6046067,-0.03512934
7513104,-0.01056122,2.515029,-0.05599385,1.0432,0.16467,0.080261,0.8006334,0.06519632,-0.5945928,-0.03456838
7525514,-0.06116129,2.745393,-0.06424965,0.97437,0.15234,0.13422,0.8087068,0.06561567,-0.5835447,-0.0341097
7537837,-0.0696834,2.972693,-0.06584755,0.96771,0.1908,0.1062,0.8172799,0.06603087,-0.5714583,-0.03360069
7549989,-0.140923,3.354458,-0.04227857,0.92505,0.16632,0.15436,0.8267653,0.06613561,-0.5576666,-0.03306441
7562227,-0.2165567,3.601332,0.1021979,0.8288,0.16736,0.32617,0.836737,0.06554603,-0.5427225,-0.03205014
7574201,-0.1884604,3.286147,0.1678448,0.84271,0.16003,0.37329,0.845606,0.06482612,-0.5289621,-0.03077877
7586269,-0.07767288,2.830747,0.2440113,0.7984,0.14954,0.38794,0.8530473,0.06428797,-0.5170442,-0.02903274
7598415,0.04975937,2.343255,0.3397519,0.87042,0.17499,0.35309,0.8590561,0.06396425,-0.507167,-0.02670069
7610485,0.09782943,2.021013,0.4309652,0.97253,0.20215,0.33606,0.8641387,0.06356511,-0.4986482,-0.02395481
7622635,-0.08100183,2.067086,0.2470739,1.053,0.1911,0.31415,0.8692778,0.06285094,-0.4897987,-0.02243222
7634613,-0.1877946,2.379474,0.10566,1.0031,0.13953,0.39722,0.8750901,0.06204654,-0.4794761,-0.02168482
7646501,-0.2322694,2.59772,0.03135783,0.8952,0.12787,0.45428,0.8812946,0.06123985,-0.4680981,-0.0212979
7658473,-0.2098988,2.720891,0.05892155,0.81116,0.13202,0.46814,0.8876272,0.06046955,-0.4561066,-0.0206955
7670636,-0.1724814,2.801319,0.1898159,0.71338,0.13489,0.46564,0.8939757,0.05956365,-0.4437153,-0.01939848
7682790,-0.2415905,2.842065,0.5163195,0.73694,0.18597,0.50281,0.9002858,0.05761659,-0.4311431,-0.01677939
7694941,-0.3842027,2.556974,0.5505411,0.78253,0.15869,0.59155,0.9058531,0.05491923,-0.41977,-0.01439282
7706917,-0.4762149,2.118085,0.4876905,0.84949,0.11072,0.62177,0.9103859,0.05189756,-0.410299,-0.01260262
7718978,-0.4481186,1.912888,0.4184483,0.84479,0.059509,0.64886,0.9143847,0.04912697,-0.4017009,-0.01112185
7731221,-0.3467853,1.865218,0.322175,0.7959,0.078918,0.60455,0.9181696,0.04700527,-0.393265,-0.009888246
7743285,-0.2759452,2.263227,0.2000691,0.79413,0.06073,0.50854,0.9226125,0.04546302,-0.3829343,-0.008981121
7755526,-0.3891296,2.586668,0.1382838,0.84723,0.065979,0.57227,0.9275588,0.04352443,-0.3710367,-0.008500664
7767853,-0.5583735,2.867099,0.01817518,0.86658,0.099609,0.69238,0.9328791,0.04102725,-0.3577363,-0.008828416
7780267,-0.7157663,3.036343,-0.0774323,0.79346,0.093506,0.81506,0.9383186,0.03796525,-0.3435403,-0.009846897
7792666,-0.3786101,2.846593,0.06984051,0.65149,0.076843,1.0953,0.943166,0.03621422,-0.3302025,-0.009629181
7804912,0.08944048,2.568292,0.1219053,0.67035,0.037659,1.0442,0.9472984,0.036564,-0.318147,-0.008441638
7816886,0.5122173,2.409568,0.06065261,0.66223,0.062927,1.0013,0.9509501,0.03900058,-0.3067984,-0.006898965
7829129,0.720876,2.224478,-0.01857644,0.63696,0.10028,0.94409,0.9541388,0.04253835,-0.2962769,-0.005447488
7841368,0.7172807,1.894512,-0.06957597,0.62555,0.12201,0.87921,0.956725,0.04612032,-0.287283,-0.004313675
7853513,0.4645467,1.517409,-0.1077923,0.61621,0.078064,0.7431,0.9587486,0.0485363,-0.2800554,-0.003811899
7865667,0.3498976,1.594108,-0.1501366,0.60474,0.082825,0.69965,0.9608445,0.05046023,-0.2724303,-0.003654413
7877998,0.2268596,1.793845,-0.1986061,0.61212,0.11975,0.73444,0.9631712,0.05185896,-0.2638123,-0.003846365
7890235,0.1091479,1.953368,-0.1430792,0.56781,0.1499,0.84991,0.9656547,0.05261626,-0.2544159,-0.003884237
7902383,0.04323463,1.849905,0.1554611,0.53497,0.11127,0.89655,0.9679425,0.05266901,-0.245574,-0.00259128
7914450,0.07505941,1.929,0.1625185,0.5304,0.10944,0.93982,0.970233,0.05286338,-0.2363299,-0.001203901
7926238,0.1758601,2.061626,0.1377511,0.50183,0.10431,0.95197,0.9725571,0.0535713,-0.2264131,0.0002178141
7938228,0.3231329,2.18493,0.1065921,0.45514,0.11084,0.96838,0.9748707,0.05502415,-0.2158625,0.001688007
7950119,0.4413772,2.222747,0.08249053,0.41351,0.1189,0.90997,0.977072,0.05707195,-0.2050929,0.00317887
7961924,0.460552,2.134463,0.01671045,0.43457,0.16425,1.0821,0.9790585,0.05927518,-0.19471,0.004342801
7973640,0.452163,1.692778,-0.01844328,0.41101,0.16779,1.0738,0.9805236,0.06147552,-0.1864598,0.005195456
7985623,0.463082,1.270667,-0.03588698,0.39508,0.1405,0.98907,0.9815331,0.06375301,-0.1802616,0.005842982
7997601,0.4581551,1.041635,-0.02363644,0.34796,0.13208,0.90875,0.9822997,0.06599955,-0.1751843,0.006473241
8009789,0.3945056,0.9560145,-0.001798523,0.31219,0.14502,0.83929,0.9829832,0.06791521,-0.1705315,0.007126817
8022085,0.08983995,1.059611,0.03734995,0.28259,0.12439,0.85516,0.9838305,0.06829462,-0.1653888,0.007748163
8034227,-0.03612757,1.03298,0.06557945,0.29987,0.13599,0.84857,0.9846713,0.06803022,-0.1603868,0.008394941
8046384,-0.1486461,1.02033,0.06997367,0.30939,0.12799,0.83942,0.9855143,0.06720708,-0.1554489,0.008968586
8058432,-0.2533084,1.094233,0.06158471,0.30731,0.10406,0.78766,0.9864222,0.0658695,-0.1501444,0.009444085
8070507,-0.3386627,1.304489,0.03588521,0.32251,0.11816,0.83051,0.9874799,0.06411775,-0.143793,0.009797589
8082577,-0.4301423,1.361081,-0.005660105,0.27264,0.16852,1.1624,0.9885628,0.06193839,-0.1371466,0.009897766
8094815,-0.3425243,1.026855,0.002462536,0.24426,0.14325,1.1945,0.9893503,0.06020072,-0.1321445,0.009994114
8106967,-0.1642256,0.8035486,0.0101857,0.24255,0.11554,1.0736,0.9899138,0.05934966,-0.1282363,0.01017891
8118940,-0.002172265,0.8767855,-0.0002006255,0.23535,0.083862,0.94489,0.9904597,0.05930236,-0.1239514,0.01043776
8131622,0.01873355,1.096896,-0.04147962,0.20392,0.07959,0.84229,0.991114,0.05937092,-0.1185596,0.01057022
8143679,-0.2756789,1.492375,-0.1478729,0.216,0.14252,1.0033,0.9920529,0.05801995,-0.1111865,0.0101179
8155395,-0.4057743,1.305022,-0.1434787,0.17352,0.15942,1.0757,0.9928737,0.05602784,-0.1047443,0.009560056
8167462,-0.4326723,1.029118,-0.09953654,0.16699,0.1283,1.0838,0.9935171,0.05389049,-0.09968055,0.009128424
8179614,-0.3881975,0.8526838,-0.07623388,0.15009,0.092896,1.0138,0.9940336,0.05196922,-0.09549398,0.008786763
8192028,-0.4047091,0.9923667,-0.1211081,0.15137,0.075195,0.88916,0.9945983,0.04997976,-0.09059915,0.008250126
8204441,-0.5316087,1.035643,-0.1550635,0.15302,0.12311,1.0069,0.9951847,0.04737124,-0.08548249,0.007497551
8216590,-0.6313441,0.8124701,-0.1446771,0.12366,0.16718,1.1907,0.9956689,0.04426925,-0.08147928,0.006700709
8228833,-0.585005,0.3453516,-0.0749023,0.11841,0.13684,1.2606,0.9959313,0.0413848,-0.0798129,0.006166285
8240807,-0.3933906,-0.03508092,-0.008989058,0.14575,0.08844,1.1626,0.9959927,0.03943995,-0.080047,0.005957526
8253220,-0.08539605,0.1514735,-0.07210597,0.084167,0.051453,0.92773,0.9960677,0.0390485,-0.07932938,0.005594367
8265810,-0.1230798,0.398748,-0.1073929,0.053162,0.049927,0.86365,0.9962466,0.03847615,-0.07737324,0.005088745
8278222,-0.2699531,0.6022136,-0.1023329,0.07019,0.094421,0.92395,0.9965247,0.03716467,-0.07440665,0.004590549
8290631,-0.4302754,0.6340383,-0.08129388,0.13599,0.1012,1.0709,0.9968314,0.03504549,-0.07128727,0.004143268
8302869,-0.3309395,0.1663872,-0.07277177,0.18158,0.11987,1.2745,0.996945,0.03342803,-0.07049701,0.003691742
8315109,-0.1160224,-0.08488204,-0.06211912,0.17444,0.082886,1.1863,0.9969317,0.03288293,-0.07095665,0.003326962
8327693,0.06067834,-0.143871,-0.07956283,0.13989,0.06366,1.0771,0.9968681,0.03322584,-0.07170422,0.002928192
8340021,0.10755,-0.09566784,-0.1040639,0.087158,0.069092,0.99463,0.9968136,0.03381038,-0.07220624,0.002432121
8352429,-0.1029729,0.02044599,-0.08888389,0.040833,0.079346,0.98657,0.9968357,0.03333874,-0.07213373,0.001955304
8365106,-0.2040399,0.08276396,-0.06411649,0.031067,0.051636,1.0134,0.9968963,0.03235381,-0.07175445,0.00157578
8377698,-0.2262773,0.1683846,-0.04720542,0.054382,0.048462,1.0239,0.9969894,0.03125114,-0.07094982,0.001286323
8390100,-0.1963167,0.2915558,-0.04973542,0.078857,0.046265,1.0372,0.9971192,0.03029764,-0.06952926,0.001014057
8402602,-0.1236124,0.3725159,-0.1019334,0.076538,0.067383,1.0961,0.997263,0.0297241,-0.06769552,0.0005190494
8414926,-0.08313236,0.2279063,-0.1097897,0.070251,0.071533,1.0925,0.9973492,0.02935531,-0.06658043,-2.295413e-05
8427686,-0.06196024,0.0867587,-0.1518677,0.10205,0.052856,1.0497,0.997384,0.02910607,-0.06616203,-0.0007884895
8440273,-0.07807235,0.05240392,-0.2200446,0.078552,0.04541,1.0215,0.9974084,0.02879879,-0.06590414,-0.001904371
8452935,-0.07021603,0.2610626,-0.172374,0.065735,0.0401,0.98407,0.9974992,0.02851678,-0.06461172,-0.002749894
8465439,-0.09724712,0.4264449,-0.2558641,0.067017,0.035034,0.99579,0.9976417,0.0281289,-0.06248107,-0.003996962
8478113,-0.1286724,0.5861014,-0.34508,0.088135,0.026367,0.98627,0.9978278,0.02761486,-0.05953953,-0.005676372
8490620,-0.1559698,0.9275187,-0.3766384,0.050171,-0.037292,0.9104,0.9980999,0.0269828,-0.05488775,-0.007474073
8503198,-0.1469151,1.389843,-0.1241708,0.075073,0.053772,1.0216,0.9984702,0.02634236,-0.04796054,-0.00794664
8515596,-0.1110956,1.215007,-0.06158649,0.067444,0.07489,0.99707,0.9987537,0.02585748,-0.04191332,-0.008120818
8528191,-0.1631604,1.144699,-0.06225228,0.03241,0.067627,0.9502,0.9989941,0.02510909,-0.0362131,-0.008318009
8540613,-0.2385278,1.19277,-0.0742365,-0.040344,0.052551,0.94922,0.9992172,0.02398771,-0.03026624,-0.008582372
8553192,-0.3690227,1.31168,0.0266973,-0.093384,0.04425,0.9859,0.999437,0.02220326,-0.02372943,-0.008347614
8565431,-0.4748834,1.522069,0.001929903,-0.070312,-0.028442,0.91235,0.999638,0.01990013,-0.01613138,-0.008225393
8578185,-0.6289473,2.054702,-0.2139193,-0.08783,-0.037354,0.99237,0.999799,0.01686395,-0.005840688,-0.009140717
8590865,-0.629613,2.287329,-0.3654532,-0.15167,0.085083,1.2822,0.9998302,0.01383693,0.005627717,-0.01079277
8603099,-0.04944338,1.368139,0.07303631,-0.063232,0.016113,1.1495,0.9997758,0.01367165,0.01244021,-0.01033166
8615511,0.08970679,1.303557,0.05572576,-0.12964,0.023193,1.0408,0.9996704,0.01419693,0.01892423,-0.009969628
8627840,0.1482963,1.373465,0.05346207,-0.16516,0.042725,0.94495,0.9995092,0.01501761,0.02575501,-0.009618971
8640227,0.07199678,1.541244,0.08142526,-0.19757,0.018799,0.84076,0.99928,0.01546786,0.0334258,-0.00910556
8652220,-0.3137621,2.139257,0.05466049,-0.18951,-0.051331,0.73083,0.9988917,0.0140119,0.04410256,-0.008614307
8664638,-0.5542456,2.457105,-0.03668593,-0.15607,-0.037903,0.75555,0.9983088,0.01134594,0.05637872,-0.008502772
8677228,-0.7539827,2.715832,-0.1629198,-0.17914,-0.020264,0.84668,0.9974808,0.007655807,0.06995271,-0.008948824
8689813,-0.8558486,2.780813,-0.2618562,-0.2243,0.0073853,0.94617,0.9964243,0.00342407,0.08384543,-0.009848336
8702220,-0.7132363,2.125142,-0.2486736,-0.39551,0.089844,1.3102,0.9954715,-0.000124408,0.09445126,-0.01075149
8714786,-0.4172259,1.555758,-0.1020665,-0.45361,0.030029,1.308,0.9947,-0.002160338,0.1021997,-0.01106326
8726784,-0.02254545,1.304489,0.04001311,-0.49738,-0.02832,1.1641,0.9940156,-0.002174133,0.1086748,-0.01086667
8739289,0.2858486,1.45083,0.1582575,-0.55481,-0.033752,0.995,0.9932126,-0.0005829848,0.115859,-0.01025098
8751430,0.3883803,1.852967,0.2662486,-0.56012,-0.085144,0.87982,0.9921094,0.001600076,0.12503,-0.009158804
8763587,0.1959669,2.560836,0.2313612,-0.42169,-0.10144,0.78235,0.9904356,0.002838243,0.1377083,-0.008112607
8775817,0.06560518,2.723688,0.0886158,-0.38837,-0.056702,0.83136,0.988471,0.00333772,0.1511782,-0.00767987
8787975,-0.02454282,2.66137,-0.03495488,-0.44293,0.019287,0.92383,0.9863709,0.003294694,0.1643197,-0.007789392
8800482,-0.0747434,2.410234,-0.08209283,-0.50226,0.062439,0.98187,0.9843167,0.002955123,0.1762003,-0.008092963
8812975,0.07971995,1.799704,0.09287686,-0.67035,0.029846,1.0889,0.9826931,0.003505259,0.1850489,-0.007679495
8825297,0.2723996,1.557889,0.2674471,-0.69629,0.008667,0.97339,0.9812245,0.005154402,0.1926877,-0.006590178
8837536,0.3790593,1.534586,0.4133883,-0.70721,-0.037842,0.83014,0.9797154,0.007466292,0.2001952,-0.004887842
8849859,0.3277934,1.713418,0.4702468,-0.64136,-0.074829,0.65381,0.9779571,0.009587337,0.2085661,-0.002848801
8862187,0.001822479,2.485069,0.2856897,-0.50299,-0.067505,0.71863,0.9752899,0.009931101,0.2207014,-0.001335177
8874688,-0.07887131,2.497452,0.1410801,-0.55707,0.02063,0.86719,0.9724587,0.009719714,0.232872,-0.0004369959
8887014,-0.07461025,2.231003,0.08368895,-0.60748,0.033752,0.92737,0.9698001,0.009460139,0.2437181,0.0001642662
8899415,0.042702,1.923674,0.09966791,-0.6582,0.02533,0.87653,0.9674041,0.009788204,0.2530477,0.0006855231
8911394,0.1618785,1.770276,0.1465395,-0.6864,0.019104,0.78888,0.9651121,0.01075179,0.261613,0.00127512
8923114,0.1257926,1.848839,0.225236,-0.67426,0.027588,0.64551,0.9626377,0.01164286,0.2705329,0.002295726
8935008,0.003287211,2.088391,0.1964738,-0.65277,0.0077515,0.59302,0.9597507,0.01190155,0.2805814,0.003357264
8947250,-0.09937765,2.48174,0.1265658,-0.62378,-0.068787,0.61115,0.956191,0.01156111,0.2924845,0.004250221
8959299,-0.1250772,2.760573,0.01804203,-0.60266,-0.022156,0.64832,0.952061,0.01093062,0.3056772,0.004677133
8971463,-0.1004429,2.815567,-0.1003355,-0.62378,0.083984,0.70984,0.9476619,0.01023279,0.31908,0.004504923
8983438,0.05268885,2.244052,-0.1452098,-0.80701,0.091919,0.66681,0.9440125,0.01020051,0.3297295,0.003845952
8995592,0.06760256,2.034994,-0.04121331,-0.89478,0.040466,0.50269,0.940595,0.01041346,0.3393512,0.00364232
9007661,-0.002971213,2.229671,0.07476736,-0.9165,-0.026184,0.40228,0.9367398,0.01048674,0.3498454,0.004113613
9019975,-0.138393,2.576282,0.1215058,-0.89716,-0.038879,0.4303,0.9321457,0.009998605,0.3619102,0.005058112
9032044,-0.3228169,2.813836,-0.01231801,-0.79321,0.027771,0.58026,0.9269609,0.008400639,0.3750203,0.005723482
9044378,-0.242922,2.595856,-0.06038807,-0.80164,0.056152,0.62323,0.9220092,0.00708754,0.3870564,0.006006162
9056525,-0.1032392,2.201176,-0.07623388,-0.84015,0.059448,0.51331,0.917681,0.006398854,0.3972223,0.005930843
9068789,-0.01934966,1.891982,-0.0469391,-0.87012,0.045288,0.39893,0.9138647,0.006162134,0.4059305,0.005813016
9081079,-0.03426336,1.691979,0.000465164,-0.9198,0.039429,0.33551,0.9103779,0.005959099,0.4136923,0.005935578
9093413,-0.3230832,1.742446,0.05479365,-0.95215,-0.00036621,0.34479,0.9067232,0.004552065,0.4216452,0.006904057
9105918,-0.4092365,1.96735,0.04826891,-0.94128,0.01178,0.3924,0.9025128,0.002732632,0.4305795,0.008029264
9117886,-0.3505138,2.245917,0.03734995,-0.90765,0.033142,0.44983,0.8975962,0.001143328,0.4407256,0.008981887
9130135,-0.1551709,2.407571,0.03961363,-0.88953,0.0061646,0.55719,0.8921969,0.0004284516,0.4515463,0.009514114
9142534,0.3404434,1.633789,-0.07357071,-0.84827,0.0018921,0.30475,0.8884511,0.001705652,0.4588909,0.008419782
9154865,0.4247325,1.357486,-0.1014007,-0.86188,-0.0039673,0.084045,0.8852842,0.003304679,0.4649858,0.007005303
9167286,0.2586844,1.235247,-0.1485387,-0.89069,-0.0067139,-0.018433,0.882363,0.004062917,0.4705165,0.005765616
9179694,-0.06262603,1.132848,-0.2316293,-0.96753,0.03064,0.037537,0.879656,0.0032107,0.4755743,0.004912914
9191786,-0.4060406,0.9837114,-0.2506709,-1.0389,0.042786,0.1452,0.8772787,0.000806401,0.4799568,0.004790835
9203907,-0.4900634,0.920195,-0.04094699,-1.0018,-0.0075684,0.40729,0.8750216,-0.001461406,0.484047,0.005790433
9216404,-0.2222825,0.8648012,0.07316946,-0.96155,-0.015259,0.38788,0.8728749,-0.002279683,0.4878936,0.006641749
9228994,0.0484278,0.7906322,0.1565264,-0.92725,-0.025024,0.28461,0.8708922,-0.001710702,0.4914184,0.007197116
9241405,0.1957006,0.7130011,0.2055286,-0.90985,-0.020325,0.13757,0.8690847,-0.0003773899,0.4946048,0.007604215
9253904,0.05561833,0.7421627,0.1341558,-0.89728,-0.0078125,0.064575,0.8671928,0.0001694332,0.4979075,0.008047103
9266495,-0.05943023,0.8171307,0.06238366,-0.90765,-0.0061035,0.10797,0.8651013,3.561137e-05,0.5015257,0.008464976
9279155,-0.1055029,0.8984903,0.007922016,-0.93805,-0.0021362,0.15613,0.8627897,-0.0004375741,0.505487,0.008762633
9291923,-0.04291863,0.9245892,-0.03974857,-1.0106,-0.0079346,0.22906,0.860394,-0.0007624996,0.5095548,0.008696213
9304688,0.02832093,0.834308,-0.01058695,-1.0061,-0.0014038,0.18701,0.8582084,-0.0007028741,0.5132293,0.008573849
9317355,0.081451,0.8084754,0.007655699,-0.97266,0.0026245,0.14771,0.8560719,-0.0003674721,0.5167885,0.008393248
9329943,0.109281,0.8347076,0.02203677,-0.97302,0.0044556,0.14862,0.8538502,0.0001230083,0.5204542,0.008201942
9342261,0.1183358,0.5887646,0.06238366,-1.0222,0.049011,0.12878,0.8522534,0.0007672528,0.5230651,0.008158938
9354495,0.0576157,0.4615986,0.1061927,-1.0142,0.02002,0.12677,0.8509791,0.001272728,0.5251299,0.008460827
9366471,0.03897358,0.3984817,0.1316259,-0.97437,0.0055542,0.12671,0.8498633,0.001768513,0.5269248,0.008919351
9378807,0.08105151,0.391957,0.1123179,-0.94727,0.00079346,0.12787,0.8487596,0.002392561,0.5286938,0.009184684
9391127,0.1339153,0.3456179,0.08728421,-0.97137,0.014893,0.11072,0.8477737,0.003176857,0.5302687,0.00920319
9403277,0.07479309,0.2144573,0.1312264,-1.0229,-0.0056763,0.044434,0.8471305,0.003833049,0.5312851,0.009562343
9415685,0.03923989,0.2606631,0.1526648,-0.98779,-0.013489,0.069092,0.8463604,0.004393325,0.5324966,0.01010731
9428015,0.03591094,0.31366,0.1316259,-0.96582,0.0064087,0.071533,0.8454461,0.004880731,0.5339338,0.01057292
9440168,0.03497883,0.4224502,0.0771642,-0.93451,-0.011108,0.091064,0.8442391,0.005212938,0.5358323,0.01081314
9452496,0.1566853,0.5529451,-0.00126589,-0.93567,0.019592,0.11072,0.8426762,0.005841495,0.5382886,0.01039927
9464787,0.2075517,0.4497476,0.004459906,-0.94824,0.029907,0.059021,0.8413811,0.00670494,0.5403104,0.009869264
9477055,0.1827843,0.2761095,0.02456677,-0.95593,0.030579,0.0026245,0.8405494,0.007526996,0.5415995,0.009484647
9489470,0.07372783,0.1223119,0.03015941,-0.96399,0.020508,-0.025879,0.8401346,0.007913162,0.5422386,0.009412883
9501969,-0.1624946,-0.1184379,0.03521942,-0.9801,0.025146,0.048035,0.8403789,0.007332197,0.5418575,0.009993299
9514383,-0.2069694,-0.218839,0.04973365,-0.97119,0.023193,0.093323,0.8408934,0.006608916,0.5410537,0.01075168
9526789,-0.2025751,-0.2673086,0.0530626,-0.98126,0.010254,0.11176,0.8415354,0.005915943,0.540047,0.01151075
9538859,-0.1521082,-0.2377475,0.05439418,-1.0068,-0.003418,0.12708,0.842093,0.005437315,0.5391684,0.01214008
9551080,-0.06515603,-0.173299,0.06917472,-0.99976,-6.1035e-05,0.13934,0.8424713,0.005360706,0.5385672,0.01259893
9563686,0.06587151,-0.188479,0.08568632,-0.93719,0.021057,0.091858,0.8428839,0.005881386,0.5379117,0.01277386
9576004,0.07772256,-0.2284264,0.06517998,-0.92456,0.016602,0.07605,0.8434028,0.006399373,0.5370904,0.01282906
9588333,0.06973308,-0.2721023,0.04387469,-0.9541,0.022522,0.072693,0.8440383,0.006829229,0.5360864,0.01281425
9600659,0.06107781,-0.3140471,0.05359523,-1.0046,0.015808,0.081177,0.8447828,0.007251248,0.5349057,0.012862
9612798,0.04762885,-0.5244368,0.181427,-1.0256,0.02771,0.074524,0.8460768,0.00797192,0.5328309,0.01347772
9624781,0.01207565,-0.6472085,0.2400165,-1.0125,0.019531,0.055786,0.8476865,0.008706714,0.5302298,0.01443068
9637023,-0.04784548,-0.6996728,0.2611887,-0.94977,0.01947,0.02887,0.8494245,0.009247668,0.5273976,0.01562946
9649260,-0.1363956,-0.6144516,0.1982049,-0.91003,0.006958,0.074463,0.8509358,0.009239996,0.5249199,0.0167978
9661501,-0.1581004,-0.4651814,0.09008054,-0.90118,0.0070801,0.16162,0.8520575,0.008843764,0.5230786,0.01756976
9673906,0.04030515,-0.4565262,-0.02337013,-0.95715,0.05481,0.22382,0.8531526,0.008995253,0.5212957,0.01733972
9686242,0.1150068,-0.6374879,0.01058518,-0.9939,0.056335,0.14893,0.8547063,0.009569522,0.5187436,0.01705146
9698389,0.1012915,-0.8175176,0.07410157,-1.0109,0.043396,0.10742,0.8567103,0.01026525,0.5154133,0.0170612
9710366,0.01047775,-1.01832,0.1314927,-1.0165,0.053284,0.084045,0.859213,0.01073701,0.5112045,0.01753997
9722252,-0.1975151,-1.347487,0.2144502,-1.0033,0.045227,0.15698,0.8625296,0.01055621,0.5055439,0.01888843
9734225,-0.2473163,-1.512336,0.2228391,-0.98035,0.052734,0.23761,0.8662194,0.01019751,0.4991436,0.02038939
9746295,-0.2242799,-1.68451,0.2264344,-0.95343,0.063965,0.28552,0.8702813,0.009965146,0.4919697,0.02183849
9758365,-0.1443851,-1.833247,0.2417476,-0.94861,0.049377,0.26648,0.8746364,0.01013426,0.4841205,0.02314867
9770439,-0.09045605,-1.953755,0.2613218,-0.94116,0.033569,0.19769,0.8792003,0.01060019,0.4757088,0.02440559
9782580,-0.2217499,-2.038177,0.2337581,-0.9314,0.033691,0.11108,0.8838882,0.01043313,0.4668669,0.02584659
9794552,-0.369289,-2.076394,0.2124528,-0.94165,0.028503,0.18036,0.8885814,0.009568644,0.4577921,0.02753315
9806624,-0.5269482,-2.18292,0.1871528,-0.96155,0.055969,0.26617,0.8934256,0.007960015,0.4481734,0.02946028
9818688,-0.6222893,-2.234452,0.198338,-0.96521,0.065186,0.39575,0.8982734,0.005958035,0.4382556,0.03164593
9830783,-0.5842061,-2.259619,0.2482723,-0.92963,0.05426,0.5202,0.9030482,0.004240786,0.428173,0.03396825
9842639,-0.1675546,-2.174798,0.2316276,-0.8078,0.036499,0.53314,0.9075229,0.004355042,0.4184922,0.0353213
9854624,0.05015885,-2.064543,0.1531975,-0.77594,0.055176,0.51642,0.9116769,0.00527353,0.409306,0.03586114
9866592,0.1915727,-2.055089,0.06691103,-0.76611,0.062378,0.47504,0.9157298,0.00665793,0.4001489,0.03571426
9878668,0.2293896,-2.139644,-0.01484801,-0.76691,0.070923,0.42572,0.9198673,0.008066265,0.3905718,0.03511011
9890905,0.1644085,-2.25416,-0.07703282,-0.81085,0.072205,0.35681,0.9241338,0.009073328,0.3804148,0.03433755
9903057,-0.1884604,-2.333921,-0.1076592,-0.89954,0.085999,0.40234,0.9284546,0.00840422,0.3697833,0.03408653
9915208,-0.4224191,-2.500769,-0.05466227,-0.90253,0.10986,0.49414,0.9329501,0.006774638,0.3582844,0.03450267
9927438,-0.5856708,-2.806766,0.0432089,-0.81378,0.11597,0.56531,0.9378164,0.004611374,0.3452653,0.03565219
9939506,-0.6542473,-3.080672,0.1414796,-0.72729,0.095337,0.68188,0.9429324,0.002345318,0.3308726,0.03736773
9951661,-0.6071093,-3.365763,0.191547,-0.68085,0.059143,0.78217,0.9482616,0.0004383283,0.3150573,0.03922902
9963813,-0.2643605,-3.557777,0.1333569,-0.63281,0.085388,0.80896,0.9536211,0.0001032843,0.2983046,0.04026275
9976052,-0.0382581,-3.328479,0.1506675,-0.5766,0.028687,0.85901,0.9583586,0.0008266346,0.2826033,0.04102992
9988202,0.09876154,-3.164828,0.03348836,-0.6156,0.026489,0.86987,0.9626425,0.002007448,0.2676412,0.04103144
10000353,0.1998285,-3.13753,-0.06811123,-0.6474,0.0087891,0.77374,0.966677,0.003532347,0.252767,0.04039809
10012414,0.1638758,-2.933399,-0.1089908,-0.61517,0.065918,0.73999,0.9702449,0.004789338,0.2388164,0.03960615
10024661,0.06147729,-2.989192,-0.08808494,-0.59308,0.08429,0.77258,0.9736707,0.005584404,0.2245243,0.03902739
10036984,-0.03013546,-3.153376,-0.103265,-0.54877,0.041626,0.79144,0.9770628,0.005947221,0.2093647,0.03846354
10049313,-0.1164219,-3.262699,-0.1469408,-0.53259,0.047302,0.81445,0.9803352,0.00586216,0.1936038,0.03776341
10061539,-0.1859304,-3.192125,-0.1743714,-0.53918,0.012512,0.84222,0.9832972,0.005394658,0.178128,0.03698837
10073780,-0.1811367,-2.756166,-0.2255041,-0.49896,-0.0046997,0.94043,0.9856663,0.004822728,0.1647595,0.03596131
10086292,-0.1188187,-2.543246,-0.2382872,-0.45184,0.0177,0.94067,0.9876915,0.004507435,0.152424,0.03481879
10098343,-0.02028176,-2.271071,-0.2551983,-0.42999,0.0026855,0.96826,0.98937,0.004617007,0.1414287,0.03351865
10110678,0.1048868,-2.053624,-0.265052,-0.4281,0.010376,0.98187,0.9907808,0.005300934,0.1315142,0.03208207
10122780,0.2969007,-1.944168,-0.2159167,-0.37732,0.030518,0.92566,0.9920094,0.006949458,0.1221588,0.03076166
10134978,0.2961018,-1.926991,-0.1991388,-0.35693,0.032837,0.90985,0.9931331,0.008600307,0.1128768,0.0295218
10147125,0.2308543,-1.901691,-0.2148514,-0.36237,0.036133,0.87964,0.9941581,0.009913173,0.1037015,0.02823834
10159370,0.1335158,-1.713671,-0.2386867,-0.37579,0.022949,0.89386,0.9950143,0.01070184,0.09544034,0.02689332
10171602,0.09529944,-1.472922,-0.2433472,-0.38672,0.023926,0.97015,0.9956964,0.01126437,0.08836687,0.02555414
10183939,0.1727974,-1.354544,-0.1750371,-0.31122,0.03479,0.97449,0.9962649,0.01222654,0.08188514,0.02452577
10196070,0.217938,-1.376116,-0.1541314,-0.34552,0.043823,1.0221,0.9967919,0.01342368,0.07529697,0.02358003
10208145,0.2319196,-1.546957,-0.09434337,-0.34937,0.05304,1.0046,0.9973235,0.0147321,0.06785166,0.02291365
10220210,0.2202017,-1.654949,-0.007657477,-0.29395,0.03894,0.95001,0.9978208,0.01602274,0.05985662,0.02267344
10232543,0.1917059,-1.262532,0.04999996,-0.2027,0.0095825,0.96179,0.9981447,0.01714301,0.05380875,0.02275903
10244781,0.2079512,-1.04109,0.01511255,-0.1828,0.029358,0.95801,0.9983797,0.01830896,0.04886894,0.02268377
10256829,0.2253948,-0.7703797,-0.02563382,-0.17853,0.033081,0.96301,0.9985316,0.01952066,0.04528475,0.02242458
10269255,0.2497628,-0.5249694,-0.05319753,-0.21106,0.044495,1.014,0.9986178,0.02081975,0.04293037,0.02204535
10281493,0.2782586,-0.4296283,-0.03388961,-0.20172,0.06665,1.0376,0.9986719,0.02225442,0.04105267,0.02176553
10293781,0.2994307,-0.7229754,0.0324231,-0.2074,0.10089,1.0715,0.9987671,0.02384021,0.03770456,0.02177891
10305780,0.2602823,-0.9785057,0.07436789,-0.17487,0.066406,0.99194,0.9988919,0.02526607,0.03307029,0.02197754
10318024,0.2303217,-0.9537383,0.09713791,-0.14587,0.045532,0.96277,0.998991,0.02654297,0.02855251,0.0222968
10330178,0.2140764,-0.8163192,0.08302316,-0.13324,0.052856,0.96436,0.9990553,0.0277209,0.0247202,0.02256509
10342338,0.1359126,-0.5766347,0.04467364,-0.15662,0.070984,0.97296,0.9990931,0.02847629,0.02208095,0.02268396
10354661,0.1052863,-0.5438778,0.06810946,-0.15869,0.081055,1.0016,0.999122,0.02907747,0.01959811,0.02292744
10366813,0.08504626,-0.5687784,0.1077906,-0.12726,0.088196,1.0108,0.9991448,0.02958437,0.01698243,0.02336709
10379042,0.07039888,-0.5547968,0.1305606,-0.10315,0.080322,1.0198,0.9991589,0.03001859,0.014431,0.02392341
10391111,0.08517942,-0.4722388,0.1282969,-0.072388,0.067993,1.0142,0.9991588,0.03051677,0.01229341,0.02447936
10403443,0.106751,-0.2814233,0.04294258,-0.023743,0.090576,1.0001,0.9991509,0.03109427,0.01112374,0.02463639
10415678,0.06320834,-0.2908776,-0.01165222,-0.043823,0.12329,1.0308,0.9991553,0.03145257,0.009908762,0.02452139
10428182,-0.002172265,-0.4000672,-0.03375646,-0.057678,0.10291,1.0437,0.9991757,0.0314968,0.008142568,0.0242819
10440669,-0.01522176,-0.4587899,-0.04507489,-0.034546,0.092651,1.0098,0.9991981,0.03148262,0.006082171,0.02397706
10453354,-0.01801807,-0.2746323,-0.1012676,-0.046021,0.091675,0.97467,0.9992193,0.03143065,0.004949274,0.02342052
10466029,-0.0604955,-0.2077869,-0.122706,-0.055847,0.10034,0.97888,0.9992465,0.03115807,0.004147768,0.02276848
10478432,-0.1056361,-0.2096511,-0.1212413,-0.069702,0.10712,1.0056,0.9992795,0.03066021,0.003330754,0.02212457
10490846,-0.1374609,-0.2717028,-0.1014007,-0.068604,0.10187,0.99994,0.9993144,0.0300106,0.002196445,0.02157104
10503258,-0.153573,-0.180889,-0.09341127,-0.023376,0.082275,0.98523,0.9993483,0.02927083,0.001512202,0.02107151
10515784,-0.1608967,-0.1317537,-0.1215076,-0.026428,0.10333,1.0302,0.9993846,0.02848911,0.001075825,0.02043918
10528170,-0.1537061,-0.1966016,-0.1272334,-0.065369,0.11584,1.1038,0.9994194,0.02774996,0.0003160111,0.01976928
10540671,-0.09178764,-0.3530624,-0.08608757,-0.094849,0.10455,1.1296,0.9994395,0.02733589,-0.001225873,0.0192834
10553343,0.08065204,-0.4292288,0.003394641,-0.093933,0.065918,1.0236,0.9994237,0.02779043,-0.003144328,0.01923523
10566104,0.1116779,-0.2647786,0.002595693,-0.0979,0.054932,0.99213,0.9994037,0.02838417,-0.004238142,0.0192061
10578595,0.1040879,-0.1049889,0.00286201,-0.095642,0.070251,0.98737,0.9993869,0.02892457,-0.004534448,0.01920054
10591272,0.06920046,-0.04107303,0.02150414,-0.084839,0.079407,1.0082,0.9993747,0.02928412,-0.004517629,0.0192964
10603943,0.01021143,-0.07502834,0.04573891,-0.049255,0.074036,0.9978,0.9993679,0.02935181,-0.004680099,0.01950696
10616788,0.01367354,-0.03947514,0.04493996,-0.041748,0.084778,1.04,0.9993613,0.02943357,-0.004665072,0.01971881
10629289,0.03484567,-0.08168624,0.04254311,-0.055847,0.088501,1.0362,0.999351,0.02962559,-0.004859231,0.01991293
10641961,0.03138357,-0.2422749,0.0663784,-0.035645,0.079834,0.97272,0.9993341,0.029816,-0.005860389,0.02020218
10654459,-0.01162649,-0.2506638,0.07303631,-0.016235,0.078979,0.96783,0.9993215,0.02979242,-0.006909597,0.02052214
10667310,-0.04598127,-0.2201706,0.05798945,-0.0050659,0.065735,0.97089,0.9993157,0.02959477,-0.007808683,0.0207703
10680157,-0.07301235,-0.1804895,0.03575205,-0.008667,0.06665,0.95331,0.9993169,0.02925891,-0.008510062,0.02091228
10692901,-0.1834004,-0.054522,0.01364781,-0.027283,0.081299,0.93665,0.9993411,0.02835936,-0.008591319,0.02095781
10705582,-0.2767442,-0.04386935,0.01830835,-0.031982,0.080322,0.9342,0.9993773,0.02699227,-0.008630625,0.02102461
10718345,-0.3606338,-0.01444142,0.01937361,-0.032227,0.055298,0.88251,0.9994233,0.025203,-0.008532585,0.02109771
10731015,-0.4457217,0.1067324,0.01204992,-0.055542,0.045654,0.8938,0.9994816,0.02297606,-0.00783773,0.02114663
10743511,-0.5337392,0.2261752,0.08289,-0.066223,0.070984,1.0021,0.99954,0.02029385,-0.00656388,0.02156074
10755563,-0.5481203,0.1100614,0.1231037,-0.10718,0.077637,1.0715,0.9995831,0.0175512,-0.005876222,0.02216455
10767899,-0.5107028,-0.1273594,0.1816933,-0.079895,0.070618,1.0748,0.9996014,0.01502063,-0.006376259,0.02304237
10780489,-0.4330717,-0.3033944,0.2304291,-0.030396,0.053345,1.0621,0.999595,0.01289739,-0.007751101,0.02415381
10792988,-0.2491805,-0.4079235,0.2397502,-0.041199,0.030701,1.0269,0.9995647,0.01170602,-0.00962732,0.02531269
10805487,-0.1916562,-0.3838219,0.2425465,-0.039856,0.050049,1.0032,0.999526,0.01079946,-0.01137657,0.02648998
10817896,-0.2017762,-0.2800918,0.2334918,-0.02063,0.036438,0.98273,0.9994905,0.00982964,-0.01260886,0.02762727
10830395,-0.2395931,-0.1285579,0.1927454,-0.030212,0.036255,0.98328,0.9994688,0.008652989,-0.01308777,0.02856633
10843066,-0.2676894,0.04015338,0.194077,-0.041931,0.039917,1.0271,0.9994565,0.007312236,-0.01272826,0.02951794
10855570,-0.2839347,-0.0586499,0.2119202,0.0054321,0.054871,1.0842,0.9994329,0.005904328,-0.0128662,0.03055455
10868066,-0.2585015,-0.2056564,0.208458,0.017883,0.0495,1.0731,0.9993963,0.004646905,-0.01373565,0.03157159
10880304,-0.1848651,-0.2891465,0.210988,0.02887,0.039612,1.0281,0.9993485,0.00377116,-0.01501181,0.03260467
10892529,-0.1052366,-0.2059227,0.1682443,0.040344,0.0056152,0.92719,0.9993098,0.003283493,-0.01585956,0.03343187
10905212,-0.1736798,-0.1751632,0.1041953,0.038696,0.023132,0.93103,0.9992838,0.002454078,-0.0165653,0.03393431
10917782,-0.2871305,-0.1958027,0.05545944,0.029846,0.03894,0.96649,0.9992637,0.001065608,-0.01739407,0.03418393
10930297,-0.3558401,-0.1740979,0.04187732,0.032715,0.0028076,0.95569,0.9992449,-0.0006684464,-0.01812723,0.03436032
10943329,-0.3748817,0.1153877,-0.03934909,-0.00018311,-0.012146,0.94653,0.9992625,-0.002540014,-0.01741861,0.03412876
10956507,-0.4075054,0.2601305,-0.0666465,-0.024475,-0.017456,1.0161,0.9992915,-0.00459717,-0.01599349,0.03375673
10969272,-0.4385312,0.2370941,-0.08209283,-0.042114,-0.019165,1.0756,0.9993141,-0.006804541,-0.01468953,0.03330623
10982210,-0.3722185,0.05959446,-0.08182652,-0.017578,-0.031006,1.1281,0.9993205,-0.008651376,-0.01426184,0.03286859
10995230,-0.2872637,-0.03827671,-0.07929651,-0.039978,-0.032593,1.1071,0.9993202,-0.01005817,-0.01430958,0.03245442
11008251,-0.1892593,-0.0834173,-0.051067,-0.057434,-0.041077,1.0747,0.9993154,-0.01097034,-0.01456595,0.03219096
11021002,-0.1250772,-0.1032578,0.001130955,-0.057312,-0.039673,1.0465,0.9993036,-0.01156276,-0.0149085,0.03219433
11033851,-0.1056361,-0.08275151,0.08435474,-0.033386,-0.051575,0.9671,0.9992805,-0.01206779,-0.01514096,0.03261397
11046783,-0.1684867,-0.06397622,0.09660528,-0.01947,-0.044922,0.9425,0.9992524,-0.01289102,-0.0152896,0.03308916
11059543,-0.2724831,-0.08634677,0.1079237,-0.0065918,-0.036438,0.9491,0.9992123,-0.0142311,-0.01556714,0.03361472
11072386,-0.5117682,-0.1883458,0.1131169,-0.0016479,-0.082947,0.93848,0.9991417,-0.01675001,-0.01639483,0.03415542
11085323,-0.6201588,-0.1249626,0.0771642,0.0015869,-0.095947,0.97974,0.9990646,-0.01981851,-0.01692813,0.03450303
11098170,-0.6280152,0.01352177,0.02083835,-0.0053711,-0.37799,1.9999,0.9989985,-0.02294645,-0.01677721,0.03455572
11111016,0.4747999,-0.4611867,-0.1729066,0.14825,0.15601,0.80927,0.999042,-0.02046874,-0.01883002,0.03378736
11123421,0.4127482,-0.08381677,-0.1326929,-0.0049438,-0.038391,1.028,0.9991001,-0.0183684,-0.01900547,0.03317422
11136181,0.3973019,-0.2169748,-0.07916336,0.091675,-0.016724,0.98346,0.9991303,-0.0163278,-0.01984501,0.03283829
11148939,0.454693,-0.005519831,-0.05213227,0.07373,-0.014099,1.0453,0.9991765,-0.01403784,-0.01961783,0.03262482
11161782,0.457223,0.008195449,-0.0526649,0.034851,-0.03241,0.99298,0.9992191,-0.01173739,-0.01932308,0.03240696
11174375,0.6066264,-0.009115098,0.04267627,0.042908,0.017822,0.96692,0.9992458,-0.00869679,-0.01908607,0.03267968
11187230,0.725137,0.06452131,0.1294953,0.059021,0.033325,0.92706,0.9992589,-0.005083904,-0.018459,0.03339269
11199616,0.8293998,0.08702502,0.2461418,0.020996,-0.020874,0.99078,0.9992408,-0.0009639735,-0.01770004,0.03469564
11212478,0.9841295,-0.392344,0.2800971,-0.21429,0.29974,1.2851,0.9991507,0.004010393,-0.01930902,0.03618175
11224779,0.3937066,-0.2738333,0.350804,0.021667,0.14886,0.95514,0.999052,0.006009201,-0.02043335,0.0379645
11236860,-0.04944338,0.02750337,0.2719744,0.0020752,-0.24359,1.1344,0.9990074,0.005746461,-0.02013425,0.03931671
11249542,0.4008972,-0.1157747,0.08155842,0.05719,-0.12207,1.0403,0.9989696,0.007779315,-0.02045769,0.03975861
11261948,0.0385741,-0.1713016,-0.1207087,0.012024,0.034668,1.2052,0.9989777,0.008032587,-0.02112357,0.03915051
11274446,0.01074407,-0.07556097,-0.1096565,0.0048828,0.023499,1.0884,0.9989944,0.008126376,-0.02131789,0.03859844
11287212,0.01247512,-0.1105815,-0.1372203,0.0036621,0.063538,1.0499,0.999012,0.008238406,-0.02168628,0.0379074
11299780,0.00981196,-0.1575863,-0.1706429,0.0224,0.056763,1.0327,0.9990301,0.008349683,-0.02228918,0.03704708
11312118,0.007148795,-0.1181716,-0.2073946,-0.0050659,0.048401,1.0402,0.9990582,0.008444462,-0.02269477,0.03600444
11324968,0.004885115,-0.1626463,-0.2022014,0.065857,0.063599,1.0035,0.9990792,0.008535303,-0.02332384,0.03498552
11337632,0.001023531,-0.09486888,-0.1979403,0.062195,0.065613,1.0073,0.9991062,0.008594557,-0.02361617,0.03399023
11350409,-0.00124016,-0.05159252,-0.2148514,0.031982,0.04364,1.0481,0.9991401,0.008637177,-0.02369303,0.03291199
11363072,-0.001639634,-0.05465515,-0.2342925,0.078674,0.0023193,1.0032,0.9991755,0.008680378,-0.02378541,0.0317364
11375918,-0.00456911,-0.03055355,-0.2255041,0.015198,-0.016296,1.0471,0.9992113,0.0087035,-0.02375924,0.03060537
11388590,-0.008563854,-0.05585358,-0.2117888,0.0084839,-0.0031738,1.0238,0.9992408,0.008708166,-0.02386144,0.02954125
11401699,-0.005501218,-0.02322985,-0.1719745,0.013428,-0.010803,1.0192,0.9992673,0.008717873,-0.02380249,0.02867783
11414633,-0.01801807,-0.09340415,-0.1144502,0.035828,0.036133,1.0325,0.9992771,0.008667774,-0.02409912,0.02809726
11427389,-0.03532862,-0.1938053,-0.1306955,0.059875,0.072754,1.0468,0.9992771,0.008547142,-0.02489994,0.02742909
11440062,-0.05663391,-0.3179086,-0.1836924,0.097046,0.039795,1.0134,0.9992676,0.008343745,-0.02632254,0.02648812
11452781,-0.01695281,-0.05598673,-0.2578615,0.025513,-0.014648,1.0296,0.9992986,0.008313427,-0.02642923,0.02519271
11465569,-0.0109607,-0.03095302,-0.2542662,0.016663,-0.006958,1.0203,0.9993305,0.008308755,-0.02641101,0.02391706
11478337,-0.006965958,0.002203336,-0.2277677,-0.011597,-0.0018311,1.0234,0.9993619,0.008315839,-0.02622822,0.0227757
11491361,-0.003370687,0.01764967,-0.1800972,-0.020264,0.0072021,1.0271,0.9993887,0.008332277,-0.02597009,0.02187364
11504293,-0.00456911,-0.002723511,-0.07596757,-0.027039,0.042175,1.03,0.9994009,0.008331119,-0.02581839,0.02149089
11517137,-0.01415649,-0.07822413,-0.02243802,0.03418,0.032349,1.0127,0.9993979,0.008283251,-0.02604751,0.02137126
11529885,-0.005368058,-0.03548039,-0.0006000996,0.035034,0.029175,1.0208,0.9993978,0.008271991,-0.02606361,0.02136367
11543003,0.001822479,0.01139124,0.1002005,0.031738,0.03125,1.0221,0.9993924,0.00827868,-0.02584966,0.02186266
11555409,0.007281959,0.04308286,0.1912807,0.032166,0.034058,1.0278,0.9993804,0.008297731,-0.02548126,0.02281878
11567998,0.01460565,0.06145867,0.2449434,0.020142,0.035706,1.0335,0.9993629,0.008344883,-0.02502313,0.02404471
11580495,0.00581722,-0.001525089,0.2806297,0.029419,0.032715,1.0276,0.9993316,0.008351743,-0.02488291,0.02544518
11593157,0.007548273,-0.001924563,0.3205771,0.032959,0.03125,1.0278,0.9992929,0.00836289,-0.02474682,0.0270454
11605661,0.003553532,-0.01830301,0.2952771,0.03418,0.027161,1.0247,0.9992533,0.008359943,-0.02469277,0.02851797
11618252,0.005550899,-0.01204458,0.2508023,0.038452,0.020142,1.0219,0.9992188,0.008372007,-0.02460608,0.0297688
11630840,0.004485637,0.001404388,0.181427,0.034241,0.021729,1.0262,0.9991952,0.008385588,-0.02445023,0.03067342
11643423,0.003287211,0.008594923,0.05319575,0.032715,0.027588,1.0299,0.9991917,0.008407914,-0.02425404,0.03093754
11656175,0.001289845,0.005132814,0.03122468,0.034363,0.027039,1.0258,0.999191,0.008423554,-0.02407529,0.03109151
11668851,0.001955636,0.005132814,0.02683046,0.032837,0.030151,1.0267,0.9991911,0.008443126,-0.023897,0.03122361
11681439,0.001156688,0.001404388,0.02336835,0.030579,0.028564,1.0261,0.9991912,0.008459807,-0.02373807,0.03133816
11694200,0.001689315,-0.001525089,0.01884098,0.032715,0.026306,1.0253,0.9991914,0.008480217,-0.02359422,0.03143002
11707052,0.0003577396,-0.001924563,0.005658329,0.030334,0.029663,1.024,0.9991938,0.008495652,-0.02345276,0.03145587
11719980,0.0004908964,-0.01151194,-0.0002006255,0.037415,0.029602,1.0212,0.9991961,0.00851401,-0.02335966,0.03145204
11733003,-0.000973843,0.005665446,0.001130955,0.033264,0.031677,1.0278,0.9991999,0.008522259,-0.02318178,0.03145543
11745934,0.0006240532,0.008594923,0.008854123,0.034119,0.035461,1.0272,0.999203,0.008537233,-0.02299011,0.03149772
11758784,-0.0004412085,-0.01550668,0.04946733,0.081177,0.091187,1.0355,0.9991967,0.008546319,-0.02292161,0.03174176
11771783,0.01354039,0.06731763,0.1434769,0.05365,0.050293,1.0519,0.999184,0.008601943,-0.02244216,0.03246059
11784074,-0.001639634,-0.04493462,0.1622522,0.089111,0.067383,1.0241,0.9991556,0.008598495,-0.02252791,0.03326666
11796792,-0.003903322,-0.06131306,0.168777,0.085266,0.054749,1.0173,0.9991236,0.008586355,-0.02269737,0.03410435
11809470,0.004751951,-0.01217773,0.1565264,0.065247,0.051086,1.0325,0.9990982,0.008611038,-0.0226206,0.03488391
11822053,-0.005101744,-0.0421383,0.07516684,0.068909,-0.00036621,1.0328,0.9990837,0.008601244,-0.02269285,0.03525462
11835077,-0.01615386,-0.09633362,-0.04214542,0.0099487,-0.039429,0.98242,0.999084,0.008558882,-0.02303367,0.03503572
11848199,-0.009762276,-0.04773093,-0.1397503,-0.028137,-0.0065918,1.0334,0.9991063,0.008550525,-0.0231269,0.03433207
11861113,-0.006832797,-0.0405404,-0.1417476,0.003418,0.05188,1.0441,0.9991292,0.00855531,-0.0231838,0.03361909
11873608,-0.01162649,-0.04946199,-0.1356224,0.072327,-0.038025,1.0367,0.9991497,0.008536614,-0.02328675,0.03293574
11886462,-0.02374387,-0.1144431,-0.2099246,0.15112,-0.052917,1.059,0.9991745,0.008476026,-0.02371426,0.03187702
11899039,-0.04012231,-0.2027269,-0.3605263,0.16296,-0.01001,1.0002,0.9992108,0.008364476,-0.02458072,0.03006016
11911625,-0.03559494,-0.1281584,-0.5444176,0.10492,0.069519,1.0019,0.9992778,0.008286064,-0.02506794,0.02732811
11924204,-0.03732599,-0.03508092,-0.6127277,-0.12604,0.04657,1.0432,0.9993573,0.008194271,-0.02508815,0.02425818
11936888,0.003819846,-0.05492147,-0.4450817,-0.1875,0.029663,1.0475,0.9994051,0.008288949,-0.02520844,0.02203009
11949555,0.06347466,-0.09473573,-0.2200446,-0.14911,0.052551,1.0756,0.9994174,0.008657418,-0.02552876,0.02093224
11962229,0.05402043,-0.1665079,0.1827585,0.015991,0.068054,1.1441,0.9993774,0.008934956,-0.02622503,0.02184277
11974777,0.1191347,-0.3501329,0.2774339,0.064453,0.080261,1.2986,0.999297,0.009546194,-0.02783591,0.02322649
11987049,0.3432397,-0.5486715,0.2859561,0.081238,0.055542,1.4091,0.9991689,0.01129975,-0.03041361,0.02467393
11999372,0.7022339,-0.7120565,0.2557292,0.11206,0.041077,1.2994,0.9989806,0.0148719,-0.03376186,0.02601449
12011525,0.8100919,-0.806066,0.2164475,0.0087891,0.11176,1.1156,0.9987442,0.0190017,-0.03756251,0.0271682
12023588,0.844713,-0.7417507,0.2346902,0.13635,0.0070801,1.0707,0.9984816,0.0232921,-0.04103844,0.02842355
12035773,1.025275,-0.2763633,0.1661138,0.19238,0.084778,1.1124,0.9982728,0.0284314,-0.04215728,0.02942568
12047795,1.211031,0.0759729,0.07649841,0.21777,0.13544,1.1447,0.9980921,0.03446428,-0.0414779,0.03006741
12059779,1.360434,0.2175199,0.03974679,0.21771,0.11823,1.1443,0.9978778,0.04122815,-0.04006368,0.03057831
12071849,1.644194,0.2326999,0.1647822,0.023621,0.13953,1.2271,0.9975299,0.04937848,-0.03855545,0.03176949
12083910,1.782412,0.1187166,0.2290975,0.044556,0.14526,1.1699,0.99704,0.05822059,-0.03760742,0.03327555
12095801,1.928353,0.1750425,0.2211081,0.10107,0.16077,1.1795,0.9964313,0.06777758,-0.03634918,0.0347805
12107764,2.048861,0.06785026,0.1079237,0.095154,0.18665,1.157,0.9956815,0.07796757,-0.03556292,0.03570133
12119765,2.160315,-0.1539911,0.01165044,0.12347,0.20148,1.0727,0.994755,0.08876055,-0.03582082,0.03606982
12131825,2.12849,-0.3104518,-0.08169336,0.077026,0.23956,0.9306,0.9937152,0.09942996,-0.03681825,0.03589222
12144065,2.046864,-0.3003318,-0.02243802,0.14905,0.27924,0.92914,0.9925964,0.1096704,-0.03780669,0.03599264
12156300,1.947262,-0.3016634,-0.07144019,0.1958,0.22253,0.8327,0.9914394,0.1194153,-0.03879064,0.03582442
12168367,1.859377,-0.09952942,-0.1542645,0.17737,0.22693,0.8382,0.990297,0.1286935,-0.03873739,0.03534397
12180424,1.772691,0.05253708,-0.2217756,0.12335,0.24548,0.81732,0.9891688,0.1375179,-0.03790184,0.03460556
12192584,1.557375,0.1719798,-0.1943451,0.078674,0.29913,0.802,0.9881355,0.1452417,-0.03653045,0.03404004
12204558,1.448984,0.2095304,-0.1526666,0.082092,0.30072,0.80597,0.9871225,0.1524078,-0.03502126,0.03368445
12216771,1.336732,0.2822347,-0.162254,0.13348,0.30798,0.79077,0.9861585,0.1590018,-0.03316421,0.03331425
12228685,1.250579,0.4143275,-0.2081935,0.15002,0.33075,0.83917,0.9852467,0.1651497,-0.03063366,0.03280563
12240769,1.21689,0.5004808,-0.2743731,0.14081,0.34393,0.88153,0.9843415,0.1711204,-0.0276299,0.03203454
12252642,1.818498,0.8540155,0.1852885,-0.2359,0.4386,1.3615,0.9828234,0.1799191,-0.02318182,0.03390763
12264445,2.499734,0.8075433,0.5859611,-0.041138,0.44354,1.2256,0.9804792,0.1920013,-0.0192032,0.03777969
12276424,2.633558,0.7379016,0.6231122,0.20044,0.67389,0.58337,0.9778062,0.204714,-0.01557302,0.04177009
12288313,1.869098,0.8541486,0.3635872,-0.036194,0.52838,0.82733,0.9758278,0.2136569,-0.01126768,0.04454283
12300476,1.64952,0.2766421,0.1984712,0.03363,0.48804,0.93066,0.9739989,0.2216493,-0.009652583,0.04587506
12312442,1.786274,0.3930222,0.03987995,0.022461,0.5694,0.92316,0.9719844,0.2302723,-0.007263643,0.04656541
12324601,1.841268,0.2410889,0.01910729,0.027771,0.56604,0.88019,0.9698222,0.2391799,-0.005576686,0.04697629
12336837,1.843132,0.07450816,-0.03162593,0.1189,0.47742,0.8396,0.9675812,0.2481171,-0.004637132,0.04693635
12348992,1.866168,0.2212483,-0.06677966,0.11218,0.53833,0.80566,0.9652385,0.2571109,-0.002940011,0.04690339
12361226,1.861242,0.3525422,-0.06491544,0.041992,0.60529,0.77374,0.9628167,0.2660276,-0.0006143413,0.04704258
12373633,1.802785,0.3292395,-0.02203855,0.070557,0.60181,0.80957,0.9603776,0.274646,0.00152692,0.04735155
12385615,1.838605,0.4107322,-0.02696539,0.046387,0.61664,0.83795,0.9578058,0.2833941,0.004073163,0.04774305
12397771,1.898659,0.4629302,-0.01844328,0.016418,0.63989,0.86505,0.9550563,0.2923918,0.006869878,0.04824233
12409923,1.965904,0.3898264,0.01191676,-0.0076294,0.68085,0.83313,0.9521091,0.301701,0.009287504,0.04877122
12422076,2.08255,0.2674542,0.03428731,0.058716,0.66809,0.74603,0.9488847,0.3115651,0.0111151,0.04920988
12433875,2.107184,0.2437521,0.01817518,0.072449,0.69971,0.68915,0.9455203,0.3215171,0.01285861,0.04952684
12445848,2.122098,0.2338983,0.001130955,0.019531,0.71417,0.72107,0.9420284,0.3315054,0.01458348,0.04973933
12457919,2.154189,0.1767735,0.01085149,0.024414,0.73248,0.66888,0.9383752,0.3416224,0.016028,0.04989335
12469766,2.176693,0.08902239,0.01671045,-0.007019,0.73206,0.66095,0.9345774,0.3518279,0.01705321,0.04991569
12481874,2.161779,0.1328314,0.04440732,-0.027649,0.74139,0.60852,0.9306836,0.3619145,0.01822755,0.05013824
12493941,2.129155,0.1059335,0.03175731,-0.0098267,0.77142,0.5719,0.9267456,0.371814,0.01928833,0.05024876
12505907,2.094801,0.0502734,0.02336835,-0.067017,0.75842,0.58362,0.9227741,0.3815269,0.02009512,0.05021296
12517983,2.071232,-0.1007278,-0.003130103,-0.068665,0.77124,0.56024,0.9187679,0.3911257,0.02024703,0.04976199
12530308,2.020365,-0.1999306,-0.06278491,0.051392,0.79541,0.47375,0.9147881,0.4004691,0.02004436,0.04884117
12542463,1.987076,-0.2828881,-0.1804966,0.022339,0.88885,0.54541,0.9108171,0.4096286,0.01968656,0.04721271
12554522,1.958846,-0.3958061,-0.2272351,0.11621,0.83435,0.36694,0.9068323,0.4186413,0.01890009,0.04513684
12566544,1.93328,-0.4141819,-0.2566631,0.0073242,0.86139,0.50128,0.9028171,0.4274986,0.01808265,0.04288579
12578568,1.960711,-0.4207067,-0.265052,0.068665,0.89105,0.50232,0.8986533,0.4364382,0.01725634,0.04057487
12590549,2.039274,-0.3759656,-0.2400183,0.050232,0.91644,0.492,0.8942128,0.4456781,0.0165891,0.03846178
12602347,2.242207,-0.2028601,-0.1581261,0.0036011,0.89655,0.43256,0.8891829,0.4557468,0.01654891,0.03707788
12614505,2.264311,-0.1032578,-0.1269671,0.035034,0.88141,0.38678,0.8839731,0.4658402,0.01688114,0.03605147
12626563,2.214377,-0.06184569,-0.1326929,-0.054749,0.86426,0.3905,0.8787638,0.4756469,0.01739737,0.03509445
12638758,2.155255,-0.1237642,-0.1428129,-0.012634,0.90271,0.29523,0.873595,0.4851474,0.01765218,0.03394513
12650780,2.08508,-0.249998,-0.1243039,0.022644,0.88446,0.24512,0.868503,0.4943101,0.01729581,0.03257131
12662584,1.97669,-0.4446751,-0.1302961,0.045593,0.89355,0.20502,0.863602,0.5029818,0.01608815,0.03069493
12674476,1.930351,-0.4982047,-0.1139176,0.08783,0.91522,0.17969,0.8587298,0.5114131,0.01459798,0.02875416
12686454,1.951789,-0.4618525,-0.09620758,0.028992,0.94781,0.242,0.8537094,0.5198826,0.01321868,0.02697692
12698421,1.99693,-0.4549283,-0.1053955,0.068298,0.92944,0.17322,0.8484826,0.5284906,0.01189609,0.02517163
12710414,2.052456,-0.2409433,-0.122706,0.11652,0.91211,0.14435,0.8430062,0.5372511,0.0115311,0.02385147
12722214,2.168038,-0.09220573,-0.04454226,-0.027771,0.90015,0.15216,0.8371043,0.5464262,0.01159381,0.02325011
12734544,2.128356,-0.0942031,0.0003320072,0.026855,0.8866,0.033325,0.8312062,0.5553758,0.01151822,0.02282961
12746785,2.049261,-0.08168624,0.03588521,0.064087,0.85388,0.0060425,0.8254296,0.563938,0.01138424,0.02259265
12759022,1.957914,0.06425499,0.01724308,0.018188,1.0305,0.073608,0.8198183,0.5720503,0.0118921,0.02269235
12770995,1.842999,0.2761095,-0.01644591,-0.025635,1.0235,0.10046,0.814449,0.5796148,0.01334922,0.02326394
12782971,1.635406,0.5156608,-0.02403592,-0.075317,0.94049,0.081055,0.8095984,0.58626,0.01577763,0.02451009
12795043,1.489331,0.5794435,-0.01937539,0.005127,1.0311,-0.039795,0.8051118,0.5922676,0.01843072,0.0259713
12807102,1.313163,0.6509494,-0.005793264,-0.039185,1.0366,-0.020508,0.8010881,0.5975247,0.02130648,0.0277133
12819496,1.101575,0.7787812,-0.01258432,0.015686,1.0234,-0.030945,0.797641,0.6018884,0.0246831,0.02983111
12831310,0.939921,0.8661329,0.005924646,-0.024963,1.0357,-0.037231,0.7946295,0.6055726,0.02832607,0.0323045
12843475,0.6995707,0.7906322,0.07330262,-0.0578,1.0308,-0.044128,0.7923151,0.6083049,0.03142428,0.03485015
12855537,0.5993026,0.6136652,0.1019316,-0.050415,1.0259,-0.069702,0.7903075,0.6106631,0.03371548,0.03698599
12867771,0.474001,0.4244475,0.1073911,-0.017517,1.0255,-0.083801,0.7886993,0.6125556,0.03521811,0.03858625
12879768,0.3755971,0.3120621,0.1189758,0.0091553,1.0048,-0.050232,0.7874012,0.6140807,0.03622214,0.03990511
12891897,0.241507,0.06745078,0.09048001,0.018066,1.0016,-0.038513,0.7865596,0.615121,0.03632304,0.04038505
12903966,0.2281912,0.05040655,0.08635211,-0.013123,1.0157,0.0071411,0.78576,0.6161123,0.0363663,0.04079888
12916035,0.2124785,-0.02988775,0.08475421,0.076904,0.98822,-0.11499,0.7850208,0.6170588,0.03609513,0.04096206
12928359,0.1990296,0.08902239,0.04720365,0.034363,1.0018,-0.094116,0.7843066,0.6179225,0.03640296,0.04134751
12940608,0.1444348,0.06998079,0.02403414,0.014954,1.0084,-0.067078,0.7837666,0.6185735,0.03669563,0.04159361
12952830,0.06493939,0.04787655,0.01990624,-0.01239,1.0142,-0.040955,0.7834754,0.6189187,0.03689743,0.04177006
12965163,0.05082464,0.04774339,0.03295573,0.0224,1.0052,-0.070068,0.7832234,0.6192124,0.03705499,0.04200004
12977316,0.03045146,0.06532025,0.02696362,0.011841,1.0052,-0.038879,0.7830309,0.6194235,0.03729523,0.04226507
12989637,0.01007827,0.02936758,0.01777571,0.042725,0.995,-0.082031,0.7829085,0.6195624,0.03741834,0.04238697
13001881,-0.07301235,-0.04653251,-0.009654848,0.037292,1.0019,-0.064087,0.7830619,0.6193889,0.0373112,0.04218237
13014577,-0.09418448,-0.03201829,-0.0253675,0.039307,0.99701,-0.065979,0.78328,0.6191283,0.0373046,0.04196565
13026784,-0.1598314,-0.1304221,-0.05293122,0.037354,1.0006,-0.094543,0.7837234,0.6186277,0.03698372,0.04134906
13039204,-0.2523763,-0.2974023,-0.06744544,-0.033997,1.0199,0.010925,0.7844839,0.6177967,0.0360341,0.0401764
13051438,-0.3493153,-0.6231069,-0.06105386,0.034302,1.0001,-0.061768,0.7855937,0.6166483,0.03376775,0.03803977
13063851,-0.3286758,-0.4635836,-0.0742365,-0.017456,1.0128,-0.0097656,0.7866067,0.6155438,0.03217261,0.03633925
13076356,-0.3017779,-0.3810256,-0.06078754,0.01001,1.0117,-0.04834,0.7875149,0.6145298,0.03086573,0.03494111
13088573,-0.2229483,-0.09114046,-0.04614016,-0.012024,1.0159,0.00036621,0.7881297,0.613777,0.03066909,0.0344792
13101088,-0.1494451,0.09900925,-0.02217171,0.011841,1.0029,0.0054932,0.7884837,0.6132859,0.03116068,0.03468435
13113501,-0.1248108,0.1083303,-0.02989487,-0.00012207,1.0099,-0.0053101,0.7887604,0.61289,0.03171664,0.03488425
13126003,-0.1925883,-0.1093831,-0.04241173,0.072388,1.0003,-0.07196,0.7892797,0.612264,0.03144015,0.03437882
13138238,-0.2033741,-0.1541242,-0.04787121,-0.015259,1.0029,0.0448,0.7898378,0.611603,0.0310016,0.03371696
13150286,-0.1732804,-0.1465342,-0.04906963,-0.025024,1.0092,0.023926,0.790301,0.6110599,0.03060168,0.03306909
13162624,-0.0588976,-0.08394992,-0.05452911,-0.0061646,1.0102,0.031311,0.7904048,0.6109583,0.03048471,0.03257345
13175218,-0.01908334,-0.06956886,-0.04946911,0.011292,0.98669,0.039612,0.7903827,0.6110134,0.0304155,0.03213583
13187775,0.02432619,-0.03108618,-0.05346385,0.026917,1.0144,0.035706,0.7902219,0.6112342,0.03051727,0.03179372
13200125,0.009545647,0.028036,-0.05346385,-0.011108,1.0146,-0.0074463,0.7900962,0.6113883,0.03084993,0.03163494
13212614,-0.0382581,-0.04067356,-0.02190539,-0.022766,1.013,0.0037842,0.790121,0.6113706,0.03080692,0.03139843
13225031,-0.04105442,-0.09287152,-0.009788006,-0.013184,1.0061,0.011658,0.7901593,0.6113531,0.03052019,0.03105075
13237775,-0.03945652,-0.1389442,-0.004994316,0.0026245,1.0072,0.0078125,0.7901979,0.611351,0.03003695,0.03058097
13250295,-0.03865758,-0.1221663,-0.003263261,-0.0013428,1.0089,0.0177,0.7902299,0.6113505,0.0296147,0.03016928
13262773,-0.03479599,-0.05944885,0.002995167,-0.016052,1.0105,0.01239,0.7902388,0.6113579,0.02942155,0.02997358
13275204,-0.04385074,-0.0834173,0.008854123,-0.013,1.0151,-0.00354,0.7902771,0.6113353,0.02911431,0.02972919
13287440,-0.06182707,-0.1171063,0.01364781,-0.0039062,1.0094,-0.015686,0.7903731,0.6112485,0.02865654,0.02940343
13300032,-0.07900447,-0.1172394,0.01604466,-0.0024414,1.0132,-0.028442,0.79052,0.6110952,0.02818829,0.02908924
13312439,-0.1149571,-0.08967572,0.01950677,0.030701,1.0049,-0.059631,0.7907709,0.6107979,0.02781296,0.02887818
13324850,-0.1804709,-0.1334847,0.008188331,-0.038574,1.0276,-0.031311,0.7912278,0.6102474,0.02728936,0.02849782
13337355,-0.1863299,-0.06450885,0.03974679,-0.011108,1.0115,0.0093384,0.7916867,0.6096694,0.02694146,0.0284536
13349762,-0.1985804,-0.08541466,0.04746996,0.0074463,1.0091,-0.01178,0.7921831,0.6090478,0.02648544,0.02837793
13362177,-0.2820705,-0.1855495,0.03175731,0.0081787,1.0082,-0.021179,0.7929469,0.608108,0.02566862,0.0279462
13374409,-0.3348011,-0.2448049,0.02097151,0.010254,1.0079,-0.0089111,0.7938767,0.6069657,0.0246422,0.0272983
13386651,-0.3803411,-0.271836,0.01165044,0.022644,1.0126,-0.017944,0.794945,0.605644,0.02353045,0.02653692
13398766,-0.4466539,-0.2228338,0.006057803,0.010132,1.0125,-0.0028687,0.7962039,0.60405,0.02262149,0.02590948
13411031,-0.5180266,-0.1192368,0.007788857,0.013306,1.0083,-0.018127,0.7976608,0.6021567,0.02211031,0.02560998
13423453,-0.6570436,0.004333865,-0.01378275,-0.021545,0.99677,0.026855,0.7995179,0.5996875,0.02213891,0.02561205
13436039,-0.7417321,-0.03161881,-0.03335698,0.003418,0.9917,-0.00079346,0.8016257,0.5968769,0.02207147,0.02543761
13448774,-0.8161675,-0.03721145,-0.03482172,-0.015076,1.029,0.048767,0.8039444,0.5937617,0.02197633,0.02524895
13461124,-0.8617076,-0.02256406,0.004726222,-0.01947,1.0493,0.062988,0.8063779,0.5904578,0.02181672,0.02526779
13473535,-1.111379,-0.1764948,0.02736309,0.082581,0.99762,-0.039429,0.8095427,0.5861568,0.02093766,0.02495058
13485854,-1.253325,-0.1819543,0.02563204,0.012512,0.97913,0.032043,0.8130959,0.581264,0.02002308,0.02462499
13498009,-1.376763,-0.276097,0.01537887,0.028137,1.0565,0.052002,0.8169833,0.5758571,0.01873958,0.02399597
13510072,-1.477564,-0.3715713,0.005125696,0.042358,0.98517,0.049805,0.8211286,0.5700214,0.01708285,0.02305878
13522398,-1.70087,-0.3053918,0.02163729,0.057434,0.98883,0.12982,0.8258502,0.5632281,0.01562414,0.0223961
13534375,-1.81472,-0.2847523,0.01005254,0.0027466,0.96063,0.15649,0.8308287,0.5559199,0.01426954,0.0217515
13546431,-1.858529,-0.1095163,0.00898728,-0.010742,1.0112,0.14294,0.8358481,0.5483664,0.01364029,0.02159154
13558590,-1.91046,-0.007250885,0.03228994,0.043823,0.90674,0.24725,0.8409289,0.5405408,0.01336801,0.02181189
13570835,-2.010329,-0.2346849,-0.00605958,0.018799,0.93066,0.16864,0.8462204,0.5322682,0.01223115,0.02126183
13583070,-2.121649,0.1807683,0.04746996,-0.076416,0.95752,0.37555,0.8516892,0.5234292,0.01269682,0.02204941
13595222,-2.279042,0.08689186,0.01564518,-0.051331,0.87946,0.25104,0.8574795,0.5138673,0.01282771,0.02246418
13607457,-2.46067,0.04428128,0.00485938,-0.0076294,0.81885,0.23413,0.8636238,0.5034619,0.01278219,0.02273279
13619753,-2.623522,0.02577231,-0.01325012,-0.055664,0.83234,0.30847,0.8700458,0.4922761,0.01268244,0.02288453
13632023,-2.842034,-0.07143307,-0.06677966,0.012939,0.8222,0.33679,0.87686,0.4800588,0.01226505,0.02257501
13644089,-2.877721,-0.05665252,-0.05293122,0.03772,0.80133,0.38159,0.8835832,0.4675893,0.0118733,0.02236067
13656239,-2.877055,-0.05358989,-0.05479543,0.00048828,0.82043,0.45258,0.8901274,0.4550284,0.01149743,0.02214213
13668772,-2.840703,-0.03081986,-0.06225228,0.047974,0.7793,0.4165,0.8964118,0.4425363,0.01124189,0.02193713
13680889,-2.826188,-0.0389425,-0.0856881,-0.05481,0.75305,0.50391,0.9024926,0.4300225,0.01100158,0.02160542
13693038,-2.889572,0.04308286,-0.09887075,-0.081909,0.76471,0.60809,0.9085279,0.4171274,0.01115151,0.02139104
13705370,-2.803418,-0.1246963,-0.1079255,-0.066711,0.84381,0.61334,0.914215,0.4045584,0.0105664,0.02077763
13717433,-2.689169,-0.1922074,-0.1018002,-0.047241,0.79071,0.70343,0.9195065,0.392444,0.009671435,0.02004664
13729668,-2.58211,-0.3980698,-0.08555494,-0.028625,0.78607,0.65222,0.9244397,0.3807758,0.007808325,0.01897841
13741996,-2.412999,-0.644279,-0.01325012,0.02301,0.80524,0.66736,0.9289079,0.3698546,0.004685267,0.01776622
13754143,-2.340827,-0.6045979,0.0473368,0.010742,0.7146,0.71185,0.9331014,0.3592123,0.001640778,0.01690451
13766213,-2.307937,-0.5448099,0.09407528,0.065857,0.5069,0.66547,0.9371026,0.3486682,-0.001205921,0.01636571
13778536,-2.303942,-0.2606507,0.1177774,-0.00091553,0.68085,0.69824,0.9409728,0.338072,-0.002762059,0.01643161
13791039,-2.28823,-0.2388127,0.108989,0.030029,0.69647,0.66724,0.9446966,0.3275037,-0.004198932,0.0164918
13803092,-2.285833,-0.08887678,0.1149811,0.057434,0.5827,0.67114,0.9482993,0.3168927,-0.004936758,0.01682456
13815428,-2.310867,0.03828917,0.1338895,0.043152,0.59668,0.72894,0.9518223,0.3061109,-0.005103456,0.01744681
13827766,-2.330308,0.076905,0.1655812,0.023254,0.6283,0.76276,0.9552493,0.295192,-0.005136348,0.01827744
13839763,-2.350148,0.001937021,0.2014007,0.0025635,0.61053,0.80603,0.9585736,0.2841448,-0.005581577,0.01916666
13852229,-2.38397,-0.3200392,0.2828934,0.042786,0.54303,0.81689,0.9617972,0.2729243,-0.007688419,0.01998609
13864464,-2.390628,-0.3312244,0.3060629,0.042786,0.49609,0.85895,0.9648907,0.2616325,-0.009880587,0.02089892
13876788,-2.386767,-0.3160444,0.2940787,0.058472,0.47974,0.85089,0.9678442,0.25032,-0.0119825,0.02177137
13888761,-2.358138,-0.2216354,0.2677134,0.065674,0.47363,0.90125,0.9706357,0.2391011,-0.01359031,0.02263355
13901006,-2.304076,-0.1380121,0.2585255,0.078064,0.46802,0.90533,0.9732401,0.2281028,-0.01477398,0.02355241
13913245,-2.201943,0.04161812,0.2609223,0.084595,0.4386,0.94781,0.9756202,0.2175508,-0.01507319,0.0246933
13925308,-2.154406,0.02763653,0.2843581,0.080872,0.46216,0.96503,0.9778317,0.2072043,-0.01545936,0.025935
13937372,-2.112594,-0.04440198,0.3096582,0.067749,0.41809,0.97314,0.979882,0.1970455,-0.01621766,0.02722692
13949609,-2.078639,-0.1417405,0.3224413,0.086975,0.41193,0.95807,0.9817834,0.1870432,-0.0174599,0.02848601
13961764,-1.999543,-0.2487996,0.3024676,0.13623,0.31964,0.95703,0.983503,0.1774257,-0.0191969,0.02955131
13973761,-1.934828,-0.1216337,0.2725071,0.07428,0.31665,1.0238,0.9850882,0.1680922,-0.02027168,0.03058591
13985807,-1.874375,-0.09899679,0.2416144,0.05658,0.30841,1.0494,0.9865422,0.1590396,-0.02119872,0.03149128
13997957,-1.798075,-0.08807783,0.2207086,0.088867,0.26166,1.0383,0.9878591,0.1503493,-0.02204204,0.03230819
14010197,-1.696342,0.03922128,0.1931449,0.070129,0.21844,1.0562,0.989045,0.142131,-0.02221839,0.03309404
14022170,-1.533357,0.1356277,0.1420122,0.060364,0.20819,1.0938,0.990072,0.1346974,-0.02185381,0.03371232
14034150,-1.446937,0.1143224,0.1164458,0.091248,0.24371,1.1561,0.99099,0.1276888,-0.02156218,0.0341981
14045952,-1.289678,0.1209803,0.1000674,0.0448,0.33203,1.3354,0.9917667,0.1214526,-0.02119964,0.03462309
14057847,-0.9795524,0.08263081,0.1701085,-0.056335,0.38568,1.4959,0.9923078,0.1167485,-0.02101538,0.03540443
14070165,-0.5831409,0.04281654,0.3144519,0.00048828,0.25037,1.3478,0.9925715,0.1140001,-0.02104199,0.03692001
14082583,-0.1494451,0.2914226,0.3446788,0.13995,0.15308,0.9632,0.9926011,0.1133527,-0.01977215,0.03877303
14094647,-0.1519751,0.4100665,0.2651834,0.067444,0.18829,0.91553,0.9926535,0.1126754,-0.01787003,0.040299
14106761,-0.2140267,0.4734497,0.2156486,0.01239,0.15967,0.93219,0.9927496,0.1116796,-0.01563885,0.0416099
14118775,-0.28753,0.4833034,0.186487,0.0018311,0.14014,0.90472,0.9928857,0.1103168,-0.01335814,0.04277639
14130834,-0.3856675,0.4673244,0.1691764,0.0079956,0.21423,0.90613,0.9930698,0.1084689,-0.01116838,0.0438421
14143077,-0.6308115,0.1674525,0.1946096,0.098999,0.18646,0.93945,0.9933548,0.1054659,-0.01053554,0.04485804
14155321,-0.7104399,0.05959446,0.1607875,0.13342,0.14764,0.966,0.9936725,0.1020911,-0.01043942,0.04564487
14167381,-0.7571784,0.0213781,0.07942789,0.14587,0.13177,0.97369,0.9940181,0.09849425,-0.01050363,0.04600535
14179766,-0.7906011,0.03163127,0.001663588,0.09314,0.12341,0.95941,0.9943852,0.09473003,-0.01048747,0.04598238
14192210,-0.9035192,0.07091289,-0.06944282,0.074402,0.1344,0.92975,0.9948077,0.0903959,-0.01026903,0.04561821
14204620,-0.9679676,0.09514766,-0.08369073,0.031799,0.10736,0.95642,0.9952431,0.085733,-0.009938573,0.0451903
14217034,-1.031218,0.06731763,-0.08608757,0.052307,0.080505,0.94379,0.9956815,0.08075809,-0.009759887,0.04473475
14229769,-1.100726,0.05653182,-0.09434337,0.01416,0.093018,0.93524,0.9961226,0.0754361,-0.009646994,0.04422956
14242212,-1.26531,0.03988707,-0.03322382,0.034302,0.029297,0.96252,0.9965782,0.06929082,-0.009676222,0.04401347
14254794,-1.307521,0.1505414,-0.02829698,0.010193,0.045471,1.0186,0.9970133,0.06290595,-0.009164782,0.04385694
14267287,-1.278759,-0.06810412,0.0266973,-0.083374,0.2193,1.4001,0.9973775,0.05670579,-0.009753686,0.04390571
14279764,-1.020965,-0.3396134,0.1675785,0.11383,-0.0058594,1.4371,0.997591,0.05184074,-0.01167938,0.0445911
14291941,-0.2923237,-0.1298895,0.2966087,0.01416,-0.021545,1.2464,0.9975833,0.05055297,-0.01243034,0.04601608
14304353,-0.06156076,-0.03081986,0.3010029,0.20074,-0.04187,0.93958,0.9975193,0.05039055,-0.01263636,0.0475022
14316853,-0.1206829,0.01485335,0.1314927,0.056641,0.050354,0.98804,0.9975119,0.04993095,-0.01258739,0.04815068
14329348,-0.1558367,0.003135443,0.1168453,0.02887,0.043274,1.0075,0.9975155,0.04929807,-0.01260266,0.04872103
14341765,-0.2248125,0.0445476,0.1285632,0.056702,0.027588,0.93591,0.9975348,0.04830882,-0.01243156,0.04935573
14354176,-0.27994,0.1623925,0.1105869,0.039673,0.0025635,0.96594,0.9975774,0.04701496,-0.01168247,0.04992596
14366499,-0.2212173,0.3252448,0.06850893,-0.069153,0.033813,1.2498,0.997623,0.04597393,-0.0100967,0.05032827
14378825,-0.0233444,0.138424,0.07023998,0.12781,0.056641,1.0338,0.997611,0.04596508,-0.009393454,0.05070652
14391061,-0.01242544,0.06984763,0.01977308,0.085999,0.036316,1.0208,0.9976059,0.04602901,-0.009018619,0.05081796
14403766,-0.01255859,0.02750337,-0.03096014,0.021484,-0.0038452,1.0261,0.9976117,0.04610381,-0.008844154,0.05066672
14416675,-0.01149333,0.01179072,-0.05066753,0.07196,0.05011,1.032,0.9976215,0.0461871,-0.008743678,0.05041367
14429080,9.141862e-05,0.008594923,-0.07130703,0.063538,0.024536,1.0306,0.9976338,0.04632835,-0.008651929,0.05005752
14442022,0.01886671,0.04800971,-0.1211081,0.039368,0.042419,1.0402,0.9976555,0.04655403,-0.008347786,0.04946296
14454589,0.01899987,0.01871493,-0.1147166,0.049194,0.064453,1.0165,0.997674,0.04678594,-0.008191515,0.04889354
14467102,0.009279326,0.01139124,-0.1056618,0.0037842,0.10565,1.0187,0.997692,0.04696965,-0.008076427,0.04836721
14479682,-0.0027049,-0.02376249,-0.05319753,0.0020752,0.090393,1.0305,0.9976984,0.04709904,-0.008151874,0.04809386
14492536,-0.003637005,-0.01191142,6.568991e-05,0.023438,0.030518,1.0355,0.9976928,0.04721779,-0.008180926,0.04808897
14505556,-0.00456911,-0.01550668,6.568991e-05,0.038452,0.030212,1.0236,0.9976874,0.04733139,-0.008228293,0.0480832
14518389,-0.001107,0.01099177,-0.0002006255,0.031067,0.029968,1.0236,0.9976823,0.04745438,-0.008142863,0.04808255
14531155,-0.001373317,0.01059229,0.000864638,0.038269,0.023926,1.0201,0.997677,0.0475746,-0.008060053,0.04808715
14543829,-0.002305426,0.005265972,0.0005983226,0.034973,0.030212,1.0288,0.9976718,0.04768992,-0.008004294,0.04808918
14556852,-0.0027049,-0.0005929829,0.0007314812,0.038452,0.029602,1.0237,0.9976665,0.04780316,-0.007978218,0.04809049
14569872,-0.003237531,-0.009381415,0.0005983226,0.041138,0.026978,1.0172,0.9976611,0.04791436,-0.00799642,0.04808904
14582882,-0.001107,-0.006984569,-0.0006000996,0.037598,0.029053,1.0223,0.9976557,0.04803419,-0.008002225,0.04808232
14595824,0.0006240532,0.0003391234,-0.0002006255,0.034241,0.029724,1.0253,0.99765,0.04815937,-0.007971509,0.04807944
14608845,-0.000973843,-0.002057722,6.568991e-05,0.036011,0.030212,1.0226,0.9976447,0.04827572,-0.007953503,0.04807729
14621949,-0.0008406863,-0.004987199,-0.0002006255,0.047363,0.031067,1.0109,0.9976393,0.04839201,-0.007950353,0.04807314
14635239,-0.0008406863,-0.00485404,0.0009977967,0.044128,0.030579,1.0162,0.9976336,0.04850678,-0.00794722,0.04807503
14648237,-0.0001748949,0.0008717561,6.568991e-05,0.034607,0.030457,1.027,0.9976283,0.04862212,-0.007915522,0.04807373
14661357,0.0003577396,-0.001525089,0.001397271,0.037048,0.029846,1.0245,0.9976225,0.0487392,-0.007896297,0.04807854
14674286,-0.0001748949,0.0002059657,6.568991e-05,0.037537,0.028809,1.0211,0.9976172,0.04885184,-0.007868552,0.04807715
14687486,0.001289845,0.0003391234,6.568991e-05,0.03833,0.032104,1.0248,0.9976118,0.04897035,-0.007840107,0.04807588
14700419,0.0002245754,0.003135443,-0.0002006255,0.032959,0.02887,1.031,0.9976067,0.04908147,-0.007798215,0.04807396
14713342,0.004885115,0.03948759,0.005392013,0.02301,0.040039,1.0303,0.9976006,0.04920548,-0.007575505,0.04810909
14726014,0.00621669,0.02923442,0.1374848,0.020752,0.060425,1.0257,0.9975618,0.04933233,-0.007436359,0.04880068
14738515,0.01194249,0.003934391,0.4317641,0.012146,0.040344,1.0388,0.9974463,0.0494817,-0.007494963,0.05095394
14751013,0.01207565,-0.02669196,0.5738437,0.04364,0.0011597,1.015,0.9972871,0.04963262,-0.007742009,0.05380787
14763508,0.009013012,0.01938073,0.3037992,0.046692,-0.0040894,1.0276,0.9971977,0.04976452,-0.007693814,0.05532629
14776265,0.009545647,0.02484021,0.2101891,0.041382,-0.0036011,1.0204,0.9971328,0.0498994,-0.007595591,0.05637931
14788941,0.009678803,0.05573288,0.2156486,0.040527,-0.051758,1.039,0.9970663,0.0500241,-0.007345248,0.05746726
14801440,0.008347221,0.05559972,0.2324265,0.062622,-0.095337,1.0272,0.996994,0.05013932,-0.007100794,0.05863877
14814026,-0.03879073,0.04268339,0.1727717,0.11566,-0.035706,0.99371,0.9969496,0.05002305,-0.006920497,0.05950805
14826769,-0.1029729,0.2245773,0.1019316,0.10083,0.067017,0.99652,0.9969475,0.04953327,-0.005836016,0.06006759
14839106,-0.155304,0.5248488,0.06770998,0.065369,0.10052,1.0173,0.9969727,0.0486922,-0.003263021,0.06052947
14851343,-0.1895256,0.7331079,0.09167843,0.0073242,0.092224,1.0242,0.9969915,0.047616,0.0003312835,0.06116088
14863669,-0.3772785,0.2247105,0.1338895,-0.068909,0.12415,1.047,0.9970331,0.04575849,0.00132367,0.06188178
14875761,-0.4916613,-0.09353731,0.08315632,-0.037415,0.095032,1.1232,0.9971133,0.04342822,0.0007061202,0.06227745
14888416,-0.4048422,-0.1966016,0.1244353,0.057373,0.016052,1.0624,0.9971567,0.04156214,-0.0004070496,0.06285577
14901001,-0.388597,-0.09367047,0.1899491,0.023376,-0.045593,1.0701,0.9971717,0.03974311,-0.001015965,0.06378176
14913579,-0.4967213,-0.09180626,0.2456092,0.0070801,-0.019287,1.0422,0.9971845,0.03738222,-0.00166164,0.06498466
14926257,-0.5233529,-0.06970201,0.269045,0.0022583,-0.0048828,1.0219,0.997187,0.03487931,-0.002210457,0.06630777
14938930,-0.5160292,-0.02762407,0.3010029,0.013977,0.016357,0.99847,0.9971697,0.03239705,-0.002552888,0.06779706
14951604,-0.4663613,0.09275082,0.3791667,0.040039,0.021423,0.9826,0.9971108,0.0301193,-0.002291381,0.06969565
14964011,-0.3117647,0.5004808,0.5569327,-0.021423,-0.099121,1.0026,0.996959,0.02846661,2.944734e-05,0.07254303
14976420,-0.2810052,0.6227199,0.6295038,-0.065857,-0.12061,1.0391,0.9967576,0.02692051,0.002960075,0.07576858
14988760,-0.3033758,0.6601373,0.6655896,-0.089294,-0.077942,1.0459,0.9965222,0.02524645,0.006063782,0.07917803
15001159,-0.346519,0.7007505,0.6834328,-0.071655,-0.02002,1.0434,0.9962589,0.0233394,0.00935051,0.08268127
15013219,-0.4738181,0.7108706,0.7140592,-0.023499,-0.0067749,1.0745,0.9959684,0.02079351,0.01263111,0.08634225
15025635,-0.566363,0.5972867,0.693686,-0.025269,-0.012451,1.0665,0.9956741,0.01783288,0.01530744,0.08989368
15037771,-0.674221,0.4481497,0.6156554,-0.030273,-0.034546,1.0722,0.9954089,0.01439488,0.01719881,0.09304948
15050019,-0.7822121,0.3329679,0.5297684,-0.048157,-0.072266,1.0579,0.9951764,0.01046409,0.01847194,0.09577676
15062350,-0.9692992,0.008461765,0.5468127,-0.17133,-0.14185,1.049,0.9949483,0.005757501,0.01803929,0.09858657
15074677,-1.078489,-0.3212376,0.6735791,-0.16272,-0.099365,1.058,0.9946545,0.0006796148,0.01590892,0.1020237
15086915,-1.177692,-0.6010026,0.7566698,-0.11383,-0.094666,1.0201,0.9942915,-0.004744029,0.01233624,0.1058756
15099319,-1.232952,-0.7366907,0.7386934,-0.055664,-0.11694,1.0191,0.9938849,-0.0103728,0.008058909,0.109638
15111559,-1.269437,-0.7822307,0.6432191,-0.0062866,-0.13104,1.0223,0.9934661,-0.01616248,0.003529666,0.1129223
15124066,-1.331755,-0.7694476,0.3597256,0.036072,-0.18817,1.0198,0.9931394,-0.0222744,-0.0009949099,0.1147909
15136562,-1.357189,-0.6986075,0.1935444,0.03186,-0.20941,1.0121,0.9928462,-0.02855283,-0.005201446,0.1158191
15148977,-1.384752,-0.5782326,0.04121153,0.015564,-0.20905,1.0307,0.992584,-0.03503411,-0.008848412,0.1160663
15161464,-1.43442,-0.5201757,-0.07623388,-0.0056152,-0.20538,1.0375,0.9923277,-0.04179015,-0.01225641,0.1157115
15174143,-1.542411,-0.7188475,-0.2044651,-0.0014038,-0.22955,1.0253,0.9920464,-0.04895813,-0.01673857,0.1147476
15186827,-1.580761,-0.8975456,-0.2081935,0.036743,-0.20819,1.0315,0.9916658,-0.05621126,-0.02212865,0.1137965
15199313,-1.556526,-0.9631926,-0.1661156,0.11542,-0.20038,1.032,0.9911783,-0.0633081,-0.02781699,0.1130653
15211551,-1.507524,-0.794215,-0.09247916,0.094666,-0.26154,1.0543,0.9906113,-0.07026406,-0.03261536,0.1126432
15224045,-1.627633,-0.4975388,-0.1064608,0.044495,-0.31573,0.92334,0.9899871,-0.07797609,-0.03601505,0.1120197
15236639,-1.692747,-0.2814233,-0.1165808,0.021606,-0.32452,0.91632,0.98931,-0.08612584,-0.03838294,0.1112419
15249052,-1.74641,-0.1207015,-0.07689966,0.015503,-0.35046,0.95654,0.9885449,-0.09463359,-0.03996557,0.1105726
15261635,-1.781297,-0.1061873,-0.04001489,0.015869,-0.3446,0.97656,0.9876691,-0.1033238,-0.04147493,0.1100633
15274139,-1.867983,-0.1886122,0.04454048,0.040588,-0.36914,0.98352,0.9866026,-0.1124073,-0.04339167,0.109987
15286574,-1.910727,-0.2678412,0.08129211,0.022339,-0.40948,0.96906,0.9853858,-0.1216578,-0.04569804,0.1101175
15299043,-1.911126,-0.4294951,0.09274369,0.0032349,-0.41785,0.98572,0.9840329,-0.1308142,-0.04878956,0.1103924
15311633,-1.855866,-0.7092602,0.1286964,0.038757,-0.43109,0.96375,0.9825326,-0.1395422,-0.05319848,0.1110299
15324038,-1.860792,-0.6894196,0.1643827,0.15387,-0.48761,0.76434,0.9809175,-0.1483032,-0.05748268,0.1118166
15336366,-1.940953,-0.3674434,0.1173779,0.12024,-0.52173,0.82019,0.9792653,-0.1576116,-0.06026259,0.1121
15348423,-2.020849,-0.1981995,0.07037315,0.082336,-0.51373,0.87701,0.9775295,-0.1673786,-0.06229043,0.1119846
15360931,-2.043752,-0.2167085,0.07743052,0.12024,-0.54535,0.81677,0.9756628,-0.1772342,-0.0644097,0.1119004
15373254,-2.15667,0.2307025,-0.151335,0.21722,-0.56738,0.7149,0.9738589,-0.1877999,-0.06460597,0.110255
15385228,-2.19968,0.5946236,-0.3615916,0.13751,-0.59595,0.77863,0.9721257,-0.1986867,-0.06324461,0.1072163
15397469,-2.208335,0.6806437,-0.4590633,0.076843,-0.64343,0.85748,0.9703311,-0.2096065,-0.06155901,0.103601
15409797,-2.185698,0.4646613,-0.4734443,0.071899,-0.64612,0.83429,0.9683704,-0.2202745,-0.06091669,0.1001355
15422210,-2.090224,0.1496093,-0.4267059,0.064087,-0.62231,0.79944,0.9662768,-0.2303121,-0.06169323,0.09726009
15434761,-1.993817,0.0635892,-0.4184501,0.060425,-0.58679,0.70844,0.964158,-0.2398218,-0.06282239,0.09454288
15447120,-1.900607,0.05040655,-0.3738421,0.045288,-0.60956,0.75537,0.9620302,-0.2488682,-0.06391144,0.09207652
15459764,-1.78143,-0.03081986,-0.3034015,0.030579,-0.57031,0.81195,0.9599075,-0.2573062,-0.06524294,0.09008016
15472294,-1.510054,-0.3184413,-0.06837755,0.097595,-0.59912,0.76544,0.9578665,-0.264372,-0.06752557,0.0896641
15484779,-1.438681,-0.3682424,-0.007923793,0.15228,-0.66034,0.68195,0.9558206,-0.2710801,-0.06993127,0.08962234
15497465,-1.410985,-0.2657107,-0.01724486,0.17786,-0.70386,0.67902,0.953801,-0.277686,-0.07184436,0.08940185
15509874,-1.37916,-0.191009,-0.02696539,0.13312,-0.68915,0.69452,0.9518083,-0.2841582,-0.07339794,0.08903801
15522286,-1.330823,-0.2643791,0.08621895,0.17719,-0.71649,0.67859,0.9497616,-0.2903977,-0.07511586,0.08933041
15534787,-1.343207,-0.2654444,0.1203074,0.19696,-0.76166,0.62396,0.947636,-0.2966969,-0.07679247,0.08977713
15547109,-1.355324,-0.1613148,0.1003337,0.16595,-0.75781,0.58459,0.945496,-0.303081,-0.07800844,0.08996557
15559347,-1.372502,-0.08488204,0.0679763,0.14746,-0.78088,0.62402,0.943329,-0.3095563,-0.07891729,0.089874
15571586,-1.326296,-0.0967331,0.06318261,0.13654,-0.75635,0.64221,0.9411868,-0.3157946,-0.07986596,0.08979203
15584089,-1.256122,-0.08235203,0.07090577,0.13196,-0.75616,0.62146,0.9391173,-0.321701,-0.08070059,0.08974773
15596583,-1.222566,-0.08315098,0.06864209,0.15137,-0.78864,0.58521,0.9370652,-0.3274381,-0.08152515,0.08970394
15609171,-1.190342,-0.004454566,0.06584577,0.12842,-0.77637,0.58057,0.935064,-0.3330485,-0.08196887,0.08952782
15621753,-1.146932,0.007263343,0.04280943,0.091614,-0.8056,0.58081,0.9331171,-0.3384424,-0.08237451,0.08923899
15634344,-1.108183,-0.05385621,0.03948047,0.096497,-0.82953,0.59656,0.9311814,-0.3436183,-0.08305136,0.08905107
15647017,-1.073695,-0.1436047,0.03881469,0.1098,-0.84418,0.55457,0.9292389,-0.3485852,-0.08412964,0.0890258
15659341,-1.076891,-0.2515959,0.07796315,0.13727,-0.83527,0.50055,0.9271989,-0.3535271,-0.08564077,0.0893665
15671758,-1.060513,-0.09367047,0.0895479,0.1153,-0.81793,0.49841,0.9252216,-0.3584607,-0.08639003,0.08948597
15684154,-1.018035,-0.01151194,0.06970736,0.068787,-0.86987,0.57397,0.9233383,-0.3632184,-0.08677384,0.08938216
15696832,-0.9718293,-0.1530589,0.04201048,0.094116,-0.87543,0.53925,0.9214654,-0.3676805,-0.08783869,0.08942531
15709512,-0.9579808,-0.2149774,0.0005983226,0.09259,-0.87537,0.52625,0.9195859,-0.3720262,-0.08925677,0.08939543
15722268,-0.8655691,-0.3370834,-0.07849756,0.091309,-0.79254,0.55133,0.9178368,-0.3758506,-0.09134024,0.08926826
15735032,-0.8027185,-0.4751683,-0.09700653,0.11255,-0.75092,0.43091,0.9161301,-0.3793098,-0.09406228,0.0893425
15747602,-0.8170996,-0.5405489,-0.05958912,0.16724,-0.84241,0.3172,0.9143261,-0.3828166,-0.09701762,0.08970337
15760200,-0.8810154,-0.2153769,0.05599207,0.12158,-0.91321,0.41125,0.9124839,-0.3868115,-0.09829243,0.0899371
15772759,-1.126159,-0.02362933,0.07503368,0.16443,-0.89819,0.32532,0.9102274,-0.3920132,-0.09876401,0.08976379
15785283,-1.162778,0.08755765,0.08222421,0.13751,-0.88629,0.38239,0.9079188,-0.3974248,-0.0987295,0.08938383
15797758,-1.181553,0.1591967,0.0994016,0.12823,-0.89581,0.38043,0.9055671,-0.4029508,-0.09834132,0.08892664
15810006,-1.184616,0.1842304,0.111519,0.13037,-0.90344,0.35052,0.9031817,-0.4084956,-0.09781384,0.08846873
15822252,-1.213245,0.3789075,0.1290959,0.12628,-0.92139,0.32428,0.9007885,-0.4142511,-0.09638085,0.08767463
15834580,-1.232153,0.4653271,0.1277643,0.11951,-0.92218,0.33679,0.8983583,-0.4201141,-0.09456631,0.08668204
15846902,-1.227493,0.4786429,0.1345553,0.10883,-0.9223,0.35449,0.8959,-0.4259488,-0.09267214,0.08568968
15858881,-1.222433,0.4410923,0.1445422,0.10297,-0.92975,0.34363,0.8933901,-0.4317332,-0.09091928,0.08481999
15871211,-1.211381,0.4058054,0.1546622,0.11053,-0.92676,0.3053,0.890844,-0.4374418,-0.08929414,0.08407242
15883355,-1.26491,0.5759814,0.2093902,0.12274,-0.91028,0.23212,0.8881915,-0.4434671,-0.0868104,0.08316787
15895511,-1.311515,0.7806454,0.2490713,0.06189,-0.93616,0.30627,0.8854572,-0.4497797,-0.08334505,0.08195991
15907837,-1.269304,0.735638,0.2570607,0.081299,-0.98553,0.32758,0.8827427,-0.4558665,-0.0800393,0.08090038
15920070,-1.196467,0.5052745,0.2281654,0.057617,-0.97095,0.28583,0.8800681,-0.4615063,-0.077783,0.08026262
15932310,-1.0701,0.2690521,0.2374865,0.087036,-0.96124,0.26019,0.8775541,-0.4664834,-0.07649121,0.08025636
15944539,-1.051325,0.1630583,0.2601234,0.088745,-0.96436,0.19556,0.8750052,-0.4713321,-0.0756021,0.08060066
15956877,-1.045865,0.1445493,0.2705097,0.08136,-0.96704,0.18506,0.8724294,-0.4761417,-0.07476538,0.08103296
15969206,-1.050792,0.1774393,0.2714418,0.072571,-0.97089,0.18433,0.8698252,-0.4809746,-0.07378307,0.08138602
15981617,-1.049594,0.2187183,0.2674471,0.06311,-0.97742,0.15375,0.8672119,-0.4858053,-0.07262839,0.08161964
15993940,-1.041071,0.3140595,0.2324265,0.051636,-0.9826,0.16614,0.8646392,-0.4906127,-0.07113995,0.08146963
16006251,-1.00898,0.2814358,0.2290975,0.05011,-0.97052,0.18579,0.8621067,-0.4952545,-0.06978571,0.08139345
16018504,-0.9685003,0.2124599,0.2549302,0.049744,-0.95306,0.13599,0.8596138,-0.4996913,-0.06864661,0.08161055
16031000,-0.9589128,0.2615952,0.3014024,0.029602,-0.97351,0.11542,0.8571175,-0.5041118,-0.06717457,0.08190499
16043505,-0.9401376,0.3145921,0.317115,0.030762,-0.96948,0.1153,0.8546544,-0.5084671,-0.06542631,0.08213643
16055822,-0.9181665,0.3188532,0.343214,0.056152,-0.98004,0.079346,0.8522123,-0.5127277,-0.06358282,0.08247263
16068316,-0.9091117,0.3879622,0.3473419,0.077454,-1.0042,0.060303,0.8497882,-0.5169679,-0.06142912,0.08264879
16080822,-0.8908691,0.4506797,0.3277677,0.038513,-0.99738,0.052917,0.8474124,-0.5211388,-0.05905077,0.08258169
16093413,-0.8506554,0.5845035,0.3011361,0.032715,-0.98657,0.033081,0.8451653,-0.5251743,-0.05615694,0.08206124
16105995,-0.8296164,0.6143309,0.3036661,-0.13129,-1.1356,0.39142,0.842954,-0.5291204,-0.05312015,0.08147555
16118324,-0.7039152,0.223512,0.1308269,0.043457,-1.0109,0.035889,0.841022,-0.5323215,-0.05213504,0.08122636
16130642,-0.6044462,0.27571,0.0282952,0.022766,-0.99475,0.0084839,0.8393971,-0.5350941,-0.05116234,0.08043144
16143143,-0.5617024,0.2859631,0.01910729,-0.0011597,-1.0067,0.020203,0.8378815,-0.5376859,-0.05015396,0.07957984
16155907,-0.521755,0.2127262,0.02270256,-0.014282,-1.0074,0.048767,0.8364437,-0.5400797,-0.0494267,0.07894891
16168401,-0.4441239,0.1084635,0.01151728,-0.090088,-1.0038,0.015442,0.8351863,-0.5421036,-0.04913466,0.07857113
16181075,-0.3683569,0.0635892,0.001130955,-0.071106,-1.0047,0.01001,0.8341213,-0.5437911,-0.04902775,0.0782899
16193663,-0.2410578,0.005931762,-0.0212396,0.022522,-1.0003,-0.0025024,0.8333927,-0.5449208,-0.04917191,0.07810324
16206593,-0.191523,0.00127123,-0.01857644,0.022888,-0.99902,0.0020142,0.8327937,-0.5458449,-0.04930902,0.07795227
16219444,-0.1453172,-0.0001935083,-0.009521689,0.020325,-1.0001,0,0.8323143,-0.5465806,-0.04940987,0.07785406
16231939,-0.05690023,-0.0003266665,0.001530429,0.035706,-1.0001,-0.023682,0.8320699,-0.5469535,-0.04944706,0.07782374
16245142,-0.0242765,0.0003391234,-0.0002006255,0.023315,-0.99011,0.02594,0.8319137,-0.5471932,-0.04947396,0.07779211
16258246,-0.02960283,0.0007385979,0.001796745,0.018677,-0.99426,0.018494,0.8317404,-0.5474582,-0.04949623,0.07776612
16271343,-0.01855071,-0.0003266665,0.002462536,0.017883,-0.99982,0.0010376,0.8315951,-0.5476795,-0.04951714,0.07774831
16284632,0.02792145,0.001537546,-0.007258003,0.03009,-0.98505,0.043518,0.8315796,-0.5477084,-0.04953923,0.07769623
16297562,-0.005900692,0.008994397,0.001663588,0.017822,-0.99762,0.014709,0.8314684,-0.5478853,-0.04951942,0.07765222
16310668,-0.001772791,0.003401759,-0.002064838,0.01239,-0.99634,0.019409,0.8313668,-0.5480444,-0.04953181,0.07760882
16323780,-0.01175965,0.008328607,-0.004328526,0.019775,-0.99182,0.029175,0.8312384,-0.5482488,-0.04953412,0.07753982
16336874,-0.03013546,0.008728081,-0.001665364,0.016418,-0.99109,0.028931,0.8310571,-0.5485326,-0.04953492,0.07747604
16349987,-0.04957654,0.01045914,-0.001132732,0.019653,-0.9895,0.027344,0.8308209,-0.5489004,-0.04953489,0.07740466
16362920,-0.08859184,0.01352177,-0.006192738,0.020386,-0.98926,0.024292,0.8304786,-0.5494321,-0.04955146,0.07729394
16375940,-0.1100303,0.03296285,-0.006725371,0.017029,-0.99493,0.021912,0.8300805,-0.5500623,-0.04949737,0.07712201
16388873,-0.1272077,0.03802285,-0.009654848,0.015869,-0.99573,0.030518,0.8296356,-0.550767,-0.04943729,0.07691944
16401748,-0.1320014,-0.00352246,-6.746687e-05,0.020325,-0.99225,0.025696,0.8291614,-0.5514796,-0.04952524,0.07686955
16414823,-0.1505103,-0.003256144,0.004726222,0.020386,-0.9892,0.022949,0.8286322,-0.5522721,-0.04960625,0.07683396
16427762,-0.1672883,-0.002590354,0.006989909,0.017639,-0.99182,0.020996,0.8280538,-0.5531365,-0.04968492,0.07680144
16440775,-0.1834004,-0.001791405,0.007256225,0.0177,-0.9903,0.019531,0.8274284,-0.5540695,-0.04976594,0.07676351
16453537,-0.2202852,0.0007385979,0.007788857,0.019226,-0.98999,0.013184,0.8266987,-0.5551575,-0.04984937,0.07671124
16466545,-0.2338673,0.001537546,0.009120438,0.019409,-0.99036,0.0090332,0.8259279,-0.5563034,-0.04993118,0.07665849
16479573,-0.248781,0.002203336,0.00898728,0.01825,-0.99048,0.0054932,0.8251128,-0.5575123,-0.05001649,0.07659922
16492334,-0.2579689,-0.001125615,0.01111781,0.018555,-0.99487,-0.0055542,0.8242671,-0.5587592,-0.05011325,0.0765553
16505353,-0.2546399,-0.0003266665,0.01005254,0.01825,-0.99506,-0.011414,0.823428,-0.5599933,-0.05020856,0.07650516
16518291,-0.253841,0.001670704,0.009919386,0.017517,-0.99341,-0.011902,0.8225883,-0.561226,-0.05029587,0.07644869
16531123,-0.2533084,0.0004722816,0.008587806,0.021484,-0.99365,-0.020081,0.8217471,-0.5624564,-0.05039179,0.07638979
16544241,-0.2566373,0.0337618,0.008188331,0.019836,-0.99005,-0.017944,0.8209015,-0.5637141,-0.0503535,0.07623433
16556996,-0.2643605,0.0461455,0.009519912,0.023926,-0.99097,-0.033752,0.8200334,-0.5650094,-0.05026378,0.07604697
16569845,-0.2602326,0.06465447,0.0117836,0.016113,-0.99371,-0.036743,0.8191773,-0.5662962,-0.05009044,0.07581708
16582603,-0.2281415,0.03189758,0.007522542,0.0067139,-0.99152,-0.029419,0.8184021,-0.567439,-0.05005136,0.07567001
16595690,-0.2129615,0.01365493,0.008587806,0.014404,-0.99451,-0.036743,0.8176619,-0.5685142,-0.05007827,0.07558246
16608466,-0.2003115,0.003801233,0.007389383,0.017334,-0.9931,-0.040955,0.8169531,-0.5695349,-0.05014426,0.07552086
16621404,-0.1895256,0.002469652,0.006457277,0.016052,-0.99194,-0.042236,0.816272,-0.5705122,-0.05021443,0.07546159
16634335,-0.1674214,0.002203336,0.006457277,0.019409,-0.99475,-0.044556,0.8156515,-0.5714004,-0.05027752,0.0754083
16647264,-0.1600977,0.005265972,0.006723594,0.021301,-0.99365,-0.049866,0.8150501,-0.5722615,-0.05032482,0.07534885
16660287,-0.1530403,0.01365493,0.006989909,0.031799,-0.99072,-0.050293,0.8144687,-0.5730985,-0.0503348,0.07526791
16673128,-0.1411893,0.07077973,0.0117836,0.013855,-0.99573,-0.050903,0.8139314,-0.5739115,-0.05009425,0.07504533
16685892,-0.1157561,0.07650553,0.00978623,0.013916,-0.99438,-0.061157,0.813467,-0.5746243,-0.04982692,0.0748041
16698563,-0.07714025,0.07610606,0.00978623,0.011475,-0.9939,-0.068787,0.8131114,-0.5751815,-0.04954705,0.07457322
16711410,-0.03745915,0.07623921,0.004459906,0.0089722,-0.99384,-0.070068,0.8128702,-0.5755779,-0.04926749,0.07432976
16724508,0.04296832,0.02923442,-0.002464313,0.003479,-0.99463,-0.070862,0.8128496,-0.5756304,-0.04916928,0.07421295
16737535,0.08797574,0.009127555,-0.005660105,0.012939,-0.99268,-0.072998,0.8129533,-0.5754939,-0.04914554,0.07415195
16750648,0.1309858,0.002469652,-0.007258003,0.015747,-0.99463,-0.070557,0.8131781,-0.5751817,-0.04913777,0.07411402
16763661,0.2191364,0.003668075,-0.007923793,0.017212,-0.99402,-0.063965,0.8136551,-0.5745134,-0.04909468,0.07409143
16776763,0.2624128,0.005665446,-0.009255374,0.015625,-0.99463,-0.062927,0.8142552,-0.573671,-0.04903157,0.07406811
16789606,0.3076865,0.008594923,-0.007790634,0.016541,-0.99371,-0.063782,0.8149828,-0.572647,-0.04893582,0.07405321
16802548,0.395704,0.0512055,-0.01072011,0.031128,-0.98633,-0.13507,0.8159704,-0.5712803,-0.04864256,0.07392554
16815129,0.4096856,0.2104625,-0.003795893,0.029968,-0.99243,-0.059326,0.8170297,-0.5699175,-0.04767512,0.07337386
16827979,0.4443067,0.2658563,0.002995167,0.033936,-0.99255,-0.079163,0.8181927,-0.5684347,-0.04644999,0.0726992
16840647,0.5092878,0.2576005,0.001663588,0.003479,-1.0052,0.048706,0.8195328,-0.566681,-0.04523935,0.07205643
16853130,0.6911818,0.1573325,-0.01910907,0.03656,-0.99524,-0.042908,0.8213648,-0.5641379,-0.04443324,0.07165262
16865815,0.7590923,0.2107289,-0.01697854,0.037354,-0.99457,-0.024048,0.8233883,-0.5613305,-0.0433778,0.07112066
16878490,0.8035672,0.1866272,0.02816204,0.062317,-1.0653,0.028198,0.8255026,-0.5583352,-0.04227942,0.07085016
16890984,0.8634883,0.3236469,0.02390098,0.065308,-1.0109,-0.031921,0.8277997,-0.5551327,-0.0406066,0.07019013
16903489,1.024476,0.647221,-0.03894962,0.026245,-0.98877,0.021606,0.8306083,-0.5513518,-0.03771302,0.06840127
16915985,1.081335,0.608472,-0.01751117,0.13501,-0.9906,0.013794,0.8335294,-0.5473082,-0.03490257,0.06681488
16928305,1.156303,0.6221873,-0.04547437,0.11938,-1.0042,0.076782,0.8366354,-0.5429327,-0.03208753,0.06508309
16940753,1.270686,0.5470861,-0.05759175,0.076477,-0.99506,0.073425,0.8400077,-0.5380309,-0.02958352,0.06351828
16953309,1.471488,0.5582714,-0.08009546,0.11115,-1.0051,0.029602,0.8438855,-0.53226,-0.02703024,0.06185381
16965544,1.537002,0.5634646,-0.1025992,0.060547,-0.99695,0.15771,0.8478938,-0.5261807,-0.02449555,0.0600843
16977869,1.633009,0.5501488,-0.1039307,0.0084229,-1.0124,0.10144,0.8520966,-0.5196567,-0.02199265,0.05835081
16990272,1.717964,0.5853025,-0.1322934,0.024353,-0.91724,0.082703,0.8564689,-0.5127409,-0.01938934,0.0564093
17002754,1.912641,0.4524107,-0.1010013,-0.089111,-0.96997,0.19965,0.8612456,-0.5049151,-0.01722006,0.05495609
